,acc_x,acc_y,acc_z,freeacc_x,freeacc_y,freeacc_z,gyr_x,gyr_y,gyr_z,mag_x,mag_y,mag_z
0,0.070909,-0.137795,9.786194,0.2068,0.046031,0.02756,-0.02066,0.013489,0.002186,-0.134766,-0.123779,-1.471436
1,0.030664,-0.124915,9.841237,0.164767,0.045221,-0.027907,-0.018594,0.012792,0.00223,-0.136963,-0.117676,-1.465088
2,0.03416,-0.139484,9.761394,0.172266,0.031467,0.051807,-0.018593,0.012556,0.003917,-0.13916,-0.115479,-1.462891
3,0.047565,-0.129288,9.790196,0.181312,0.046107,0.023309,-0.019282,0.013915,0.004059,-0.141113,-0.119629,-1.464844
4,0.026797,-0.123757,9.817705,0.160153,0.044594,-0.004426,-0.018593,0.012082,0.007292,-0.136963,-0.117676,-1.467285
5,-0.013378,-0.090781,9.802326,0.110446,0.061564,0.010748,-0.021351,0.010997,0.005224,-0.136963,-0.119629,-1.464844
6,-0.00989,-0.132092,9.816353,0.128157,0.02409,-0.003693,-0.013768,0.016562,0.004812,-0.136963,-0.121826,-1.464844
7,-0.045669,-0.138494,9.815009,0.096746,0.005772,-0.002927,-0.022037,0.015734,0.005839,-0.138916,-0.121826,-1.462646
8,-0.061628,-0.166008,9.833062,0.091319,-0.025107,-0.021513,-0.019286,0.0103,0.005265,-0.136963,-0.117676,-1.462646
9,-0.062787,-0.161227,9.809556,0.087874,-0.021328,0.002022,-0.020662,0.013018,0.00555,-0.13501,-0.115479,-1.462891
10,-0.059289,-0.196039,9.800068,0.103035,-0.052847,0.011163,-0.019284,0.013917,0.00405,-0.13916,-0.119629,-1.464844
11,-0.080118,-0.197287,9.851004,0.084072,-0.060368,-0.040074,-0.018596,0.012797,0.002216,-0.13501,-0.115479,-1.462891
12,-0.057108,-0.239357,9.81398,0.119824,-0.092516,-0.00321,-0.019285,0.014155,0.002358,-0.13501,-0.117432,-1.469482
13,-0.077957,-0.21352,9.771065,0.090724,-0.076108,0.039696,-0.017218,0.013458,0.002404,-0.137207,-0.113281,-1.467285
14,-0.059839,-0.242937,9.813875,0.118335,-0.096871,-0.003186,-0.019285,0.014394,0.000667,-0.13916,-0.117676,-1.465088
15,-0.061203,-0.251563,9.837278,0.119943,-0.105041,-0.026705,-0.018597,0.013036,0.000522,-0.132813,-0.117432,-1.462646
16,-0.06251,-0.23995,9.790308,0.114302,-0.095225,0.020369,-0.020663,0.01445,-0.004593,-0.13916,-0.119629,-1.467041
17,-0.068727,-0.202117,9.776286,0.09513,-0.062065,0.03473,-0.015841,0.014358,0.000903,-0.138916,-0.121826,-1.464844
18,-0.070189,-0.224076,9.846603,0.102116,-0.082282,-0.035842,-0.017219,0.013936,-0.000979,-0.136963,-0.121826,-1.467041
19,-0.052013,-0.226406,9.795592,0.119289,-0.079047,0.015386,-0.019287,0.014395,0.00066,-0.136963,-0.121826,-1.462646
20,-0.092392,-0.200057,9.803653,0.072441,-0.068021,0.007061,-0.018598,0.013276,-0.001173,-0.136963,-0.119629,-1.464844
21,-0.093688,-0.201951,9.803602,0.071528,-0.070198,0.00707,-0.019974,0.013334,-0.006432,-0.141113,-0.119629,-1.464844
22,-0.06561,-0.166441,9.814462,0.085726,-0.026946,-0.002994,-0.019978,0.012615,-0.001368,-0.137207,-0.115479,-1.465088
23,-0.05213,-0.149635,9.819883,0.092189,-0.006398,-0.00804,-0.019288,0.011736,-0.00489,-0.141113,-0.117676,-1.467285
24,-0.019226,-0.140254,9.79781,0.119618,0.013574,0.014594,-0.022731,0.015391,-0.006343,-0.134766,-0.121826,-1.464844
25,0.008784,-0.111556,9.83217,0.135995,0.050775,-0.019048,-0.017223,0.010798,-0.003154,-0.143311,-0.113525,-1.465088
26,0.0614,-0.115916,9.806073,0.186562,0.06415,0.007722,-0.01791,0.012398,-0.004701,-0.138916,-0.121826,-1.464844
27,0.060196,-0.110949,9.782617,0.183122,0.068039,0.031207,-0.019976,0.013336,-0.006441,-0.141113,-0.119629,-1.460449
28,0.146831,-0.124494,9.804848,0.26923,0.085405,0.010019,-0.019293,0.011255,-0.00152,-0.136963,-0.121826,-1.467041
29,0.179647,-0.121706,9.806281,0.298834,0.099323,0.009062,-0.018603,0.016653,-0.000704,-0.137207,-0.115479,-1.462891
30,0.178184,-0.11696,9.782846,0.295755,0.103214,0.032535,-0.024114,0.014492,-0.004859,-0.132813,-0.117432,-1.465088
31,0.211112,-0.114201,9.784294,0.325369,0.11716,0.031561,-0.014476,0.011156,0.00398,-0.136963,-0.117676,-1.467285
32,0.204815,-0.096769,9.840742,0.314042,0.132105,-0.024764,-0.019989,0.015269,0.004163,-0.136963,-0.117676,-1.460449
33,0.149945,-0.075501,9.796482,0.254461,0.132606,0.01897,-0.017923,0.011193,0.003732,-0.136963,-0.115479,-1.47168
34,0.0902,-0.034973,9.808661,0.184482,0.150225,0.006435,-0.017239,0.012729,0.007446,-0.136963,-0.119629,-1.47168
35,0.054533,-0.055158,9.854058,0.157993,0.119747,-0.039682,-0.020001,0.014302,0.010912,-0.13501,-0.117432,-1.462646
36,0.019153,-0.048009,9.80572,0.121907,0.113675,0.008248,-0.01931,0.013186,0.009079,-0.136963,-0.117676,-1.467285
37,-0.016297,-0.047599,9.780803,0.087958,0.101517,0.032677,-0.017926,0.014331,0.005897,-0.136963,-0.119629,-1.464844
38,-0.037421,-0.049035,9.831704,0.069211,0.093702,-0.01852,-0.018627,0.01472,0.012791,-0.136963,-0.119629,-1.462646
39,-0.048505,-0.095709,9.793104,0.074129,0.045644,0.019383,-0.022761,0.012982,0.010513,-0.137207,-0.115479,-1.465088
40,-0.069139,-0.076658,9.773713,0.047936,0.056196,0.038709,-0.016548,0.011615,0.005606,-0.136963,-0.117676,-1.460449
41,-0.051072,-0.113117,9.839902,0.077554,0.029022,-0.027649,-0.018623,0.011828,0.008928,-0.134766,-0.121826,-1.462646
42,-0.081631,-0.145469,9.805318,0.059698,-0.012403,0.00614,-0.018626,0.014963,0.011097,-0.134766,-0.121826,-1.467041
43,-0.083093,-0.147355,9.805278,0.058773,-0.014605,0.006137,-0.020002,0.014546,0.009211,-0.138916,-0.121826,-1.469238
44,-0.09431,-0.200707,9.790024,0.066526,-0.068756,0.02062,-0.017938,0.013604,0.010951,-0.13501,-0.115479,-1.462891
45,-0.081037,-0.197625,9.842394,0.077911,-0.060565,-0.03153,-0.019316,0.009811,0.008581,-0.13916,-0.115479,-1.460449
46,-0.07728,-0.225273,9.809285,0.090592,-0.085873,0.001306,-0.01656,0.014264,0.011145,-0.13916,-0.119629,-1.464844
47,-0.078764,-0.234103,9.832645,0.092086,-0.094225,-0.022177,-0.022766,0.012985,0.010498,-0.143066,-0.121826,-1.464844
48,-0.06055,-0.250096,9.82853,0.114634,-0.103011,-0.018003,-0.015872,0.012905,0.010999,-0.13501,-0.117432,-1.469482
49,-0.066813,-0.218994,9.838142,0.097934,-0.075931,-0.027338,-0.018615,0.015696,0.006024,-0.13916,-0.115479,-1.465088
50,-0.048539,-0.228001,9.810621,0.118024,-0.078535,0.000321,-0.018627,0.011831,0.008913,-0.13916,-0.119629,-1.462646
51,-0.044688,-0.248792,9.754077,0.127877,-0.097611,0.056662,-0.019311,0.013434,0.007368,-0.13916,-0.113281,-1.467285
52,-0.070585,-0.21761,9.81458,0.093335,-0.076301,-0.003819,-0.018619,0.01232,0.005536,-0.136963,-0.117676,-1.469482
53,-0.05224,-0.233505,9.810473,0.115501,-0.085056,0.000345,-0.017926,0.011206,0.003704,-0.136963,-0.119629,-1.467041
54,-0.019,-0.216874,9.765182,0.140554,-0.058755,0.046267,-0.019303,0.013924,0.003989,-0.136963,-0.117676,-1.462646
55,-0.02047,-0.232547,9.81195,0.144503,-0.073346,-0.000701,-0.017238,0.009847,0.003558,-0.136963,-0.121826,-1.467041
56,-0.007076,-0.215696,9.817546,0.151322,-0.052862,-0.005922,-0.01997,0.016264,-0.002619,-0.136963,-0.117676,-1.465088
57,-0.003654,-0.250267,9.807798,0.166103,-0.084315,0.003465,-0.016532,0.012601,-0.001164,-0.136963,-0.119629,-1.464844
58,0.009676,-0.233348,9.813405,0.172922,-0.063833,-0.001766,-0.019283,0.014906,-0.002765,-0.13916,-0.117676,-1.467285
59,0.022829,-0.223562,9.842419,0.181797,-0.04958,-0.030493,-0.019974,0.012888,-0.00311,-0.132813,-0.117432,-1.462646
60,0.007295,-0.223266,9.766519,0.166493,-0.055728,0.045192,-0.019284,0.014906,-0.002768,-0.132813,-0.121826,-1.464844
61,0.020278,-0.220283,9.818943,0.177849,-0.047712,-0.007021,-0.016527,0.012847,-0.002856,-0.13501,-0.117432,-1.469482
62,0.014202,-0.182397,9.805243,0.159099,-0.014396,0.007039,-0.021346,0.015853,-0.004515,-0.132813,-0.119629,-1.467041
63,0.013076,-0.177307,9.781815,0.155723,-0.010306,0.030501,-0.017219,0.010829,-0.003202,-0.136963,-0.117676,-1.469482
64,-0.008095,-0.185817,9.856026,0.139295,-0.024661,-0.044078,-0.016547,0.012108,0.002202,-0.134766,-0.121826,-1.460449
65,-0.013813,-0.133887,9.795566,0.115316,0.021187,0.016898,-0.019968,0.016513,-0.004319,-0.136963,-0.117676,-1.465088
66,-0.034852,-0.128712,9.822987,0.094024,0.019334,-0.010736,-0.019307,0.01079,0.001798,-0.134766,-0.121826,-1.464844
67,-0.035661,-0.116579,9.77618,0.088213,0.029697,0.03619,-0.018604,0.013302,-0.001233,-0.132813,-0.119629,-1.462646
68,-0.061417,-0.078585,9.813369,0.051187,0.057086,-0.000889,-0.019301,0.011037,0.000108,-0.132813,-0.117432,-1.465088
69,-0.02828,-0.068794,9.791613,0.078372,0.077266,0.02141,-0.017218,0.014209,-0.002721,-0.132813,-0.121826,-1.467041
70,-0.044472,-0.096394,9.809262,0.072803,0.04615,0.00323,-0.022059,0.013097,0.00019,-0.13916,-0.119629,-1.460449
71,-0.031118,-0.079826,9.81496,0.079245,0.066606,-0.0021,-0.020687,0.013508,0.002077,-0.13501,-0.117432,-1.469482
72,-0.017763,-0.062989,9.820671,0.086072,0.08707,-0.007438,-0.016523,0.013099,-0.004555,-0.137207,-0.115479,-1.465088
73,0.000371,-0.085859,9.839977,0.110637,0.072017,-0.026778,-0.019303,0.011038,0.000101,-0.13501,-0.117432,-1.460449
74,0.004259,-0.113442,9.806779,0.123374,0.046901,0.006139,-0.018614,0.013056,0.000445,-0.136963,-0.117676,-1.458252
75,0.037413,-0.103727,9.785064,0.15054,0.067092,0.02839,-0.02,0.012149,0.001928,-0.13916,-0.117676,-1.462646
76,0.055433,-0.126773,9.804363,0.175503,0.052,0.009057,-0.019311,0.014167,0.002273,-0.13501,-0.115479,-1.469482
77,0.039613,-0.140283,9.775214,0.164696,0.033522,0.037832,-0.019319,0.013919,0.003959,-0.13501,-0.115479,-1.465088
78,0.052507,-0.13751,9.827703,0.176328,0.041322,-0.01445,-0.017259,0.01297,0.005704,-0.134766,-0.121826,-1.462646
79,0.036207,-0.172168,9.86866,0.172745,0.003827,-0.056028,-0.021389,0.011243,0.003405,-0.136963,-0.117676,-1.462646
80,0.08955,-0.155404,9.772795,0.216257,0.036447,0.040707,-0.017949,0.014329,0.005845,-0.132813,-0.123779,-1.464844
81,0.05385,-0.168824,9.794431,0.187141,0.011865,0.018448,-0.018655,0.011813,0.008871,-0.133057,-0.113281,-1.462891
82,0.06216,-0.126373,9.833405,0.180635,0.055189,-0.019912,-0.019337,0.013422,0.007326,-0.13501,-0.115479,-1.469482
83,0.051622,-0.165384,9.771014,0.183185,0.013907,0.041864,-0.016588,0.011113,0.008929,-0.13916,-0.119629,-1.464844
84,0.064601,-0.162478,9.823519,0.194793,0.021635,-0.010433,-0.015898,0.01313,0.009275,-0.132813,-0.117432,-1.462646
85,0.009735,-0.154779,9.825823,0.140112,0.009999,-0.013356,-0.021424,0.010248,0.010142,-0.136963,-0.121826,-1.460449
86,0.028261,-0.163656,9.798368,0.160283,0.007594,0.014226,-0.016579,0.01474,0.00773,-0.137207,-0.115479,-1.469482
87,0.011887,-0.191173,9.815894,0.154251,-0.023598,-0.003835,-0.020027,0.014783,0.007462,-0.137207,-0.115479,-1.460449
88,0.005911,-0.153358,9.802375,0.13556,0.009815,0.010053,-0.020709,0.013017,0.005425,-0.13916,-0.119629,-1.460449
89,-0.025024,-0.199611,9.814061,0.122097,-0.044006,-0.002578,-0.017951,0.014332,0.005834,-0.132813,-0.117432,-1.467285
90,-0.026168,-0.19434,9.790663,0.119137,-0.039796,0.020867,-0.019312,0.014176,0.002254,-0.132813,-0.121826,-1.460449
91,-0.042679,-0.229032,9.831502,0.115513,-0.077394,-0.020592,-0.018633,0.012566,0.003796,-0.13916,-0.119629,-1.462646
92,-0.04371,-0.223788,9.808098,0.112555,-0.073178,0.002858,-0.019332,0.013675,0.005624,-0.13916,-0.119629,-1.467041
93,-0.049796,-0.192897,9.817957,0.0958,-0.046174,-0.006715,-0.017944,0.011207,0.00365,-0.132813,-0.121826,-1.464844
94,-0.060371,-0.239015,9.778801,0.101159,-0.093764,0.031752,-0.020704,0.009893,0.003236,-0.133057,-0.115479,-1.467285
95,-0.066466,-0.20829,9.788663,0.084467,-0.06672,0.022175,-0.020012,0.015286,0.004078,-0.136963,-0.115479,-1.47168
96,-0.088113,-0.2175,9.862726,0.067834,-0.081587,-0.052259,-0.019315,0.010802,0.001753,-0.136963,-0.121826,-1.464844
97,-0.107957,-0.183819,9.796696,0.036589,-0.057893,0.013911,-0.017266,0.012973,0.005682,-0.134766,-0.119629,-1.469482
98,-0.10926,-0.185505,9.79665,0.036005,-0.060071,0.013922,-0.017246,0.013477,0.002308,-0.13501,-0.117432,-1.467285
99,-0.08153,-0.157167,9.831698,0.052202,-0.023459,-0.020438,-0.018615,0.013072,0.000414,-0.130859,-0.117432,-1.462646
100,-0.062696,-0.158801,9.780905,0.070048,-0.01934,0.030562,-0.018626,0.01282,0.002098,-0.13501,-0.113281,-1.469482
101,-0.103378,-0.139624,9.812338,0.025141,-0.014737,-0.001146,-0.019295,0.014684,-0.001132,-0.133057,-0.113281,-1.462891
102,-0.070626,-0.136994,9.814124,0.055115,-0.000903,-0.002492,-0.019306,0.014432,0.000553,-0.141357,-0.115479,-1.465088
103,-0.037358,-0.127109,9.792582,0.082297,0.019433,0.019574,-0.017239,0.010354,0.000121,-0.13501,-0.113281,-1.467285
104,-0.038639,-0.128932,9.792553,0.081716,0.017255,0.019565,-0.019996,0.015792,0.000694,-0.13916,-0.117676,-1.467285
105,-0.006407,-0.140663,9.84104,0.115939,0.018174,-0.02866,-0.019297,0.011309,-0.001633,-0.13916,-0.113281,-1.465088
106,0.031741,-0.16353,9.809546,0.159296,0.009286,0.003025,-0.018607,0.013326,-0.001282,-0.13916,-0.119629,-1.460449
107,0.030436,-0.165355,9.80952,0.158257,0.007109,0.003006,-0.018608,0.013326,-0.001283,-0.133057,-0.115479,-1.467285
108,0.029109,-0.167113,9.809494,0.157674,0.004925,0.002995,-0.01724,0.01373,0.000611,-0.137207,-0.113281,-1.469482
109,0.081462,-0.178535,9.807266,0.210365,0.012211,0.005722,-0.020689,0.013776,0.000334,-0.136963,-0.117676,-1.462646
110,0.060318,-0.1734,9.834639,0.188974,0.010114,-0.021845,-0.015194,0.012521,0.004047,-0.136963,-0.119629,-1.460449
111,0.059645,-0.160886,9.787957,0.183301,0.020922,0.024965,-0.022758,0.014479,0.000265,-0.136963,-0.121826,-1.462646
112,0.087205,-0.13277,9.823154,0.19989,0.057409,-0.00955,-0.015861,0.014388,0.000816,-0.13916,-0.115479,-1.460449
113,0.070889,-0.160266,9.840517,0.193774,0.026102,-0.027448,-0.018644,0.012566,0.003767,-0.137207,-0.115479,-1.469482
114,0.050701,-0.13358,9.797913,0.165396,0.043538,0.015226,-0.017955,0.014583,0.004119,-0.138916,-0.121826,-1.467041
115,0.044437,-0.102733,9.807922,0.14864,0.070521,0.005507,-0.019347,0.013672,0.005593,-0.13916,-0.117676,-1.462646
116,0.062347,-0.125789,9.827166,0.173523,0.05522,-0.013794,-0.016564,0.012119,0.002144,-0.13916,-0.117676,-1.467285
117,0.041517,-0.113407,9.831217,0.149331,0.059612,-0.017956,-0.017968,0.014329,0.005801,-0.137207,-0.115479,-1.467285
118,0.006698,-0.10521,9.78265,0.113551,0.054513,0.03028,-0.017279,0.012969,0.005656,-0.141357,-0.115479,-1.465088
119,0.005019,-0.114395,9.805947,0.114808,0.045808,0.006851,-0.022785,0.013974,0.003623,-0.137207,-0.115479,-1.467285
120,-0.011027,-0.13498,9.799935,0.106805,0.021048,0.012422,-0.01797,0.014329,0.005797,-0.136963,-0.121826,-1.462646
121,-0.017541,-0.111239,9.833284,0.092375,0.041461,-0.02072,-0.016591,0.01161,0.005509,-0.128662,-0.117432,-1.469482
122,-0.008649,-0.171167,9.789817,0.120926,-0.012483,0.022125,-0.02073,0.013017,0.005371,-0.136963,-0.117676,-1.467285
123,-0.029489,-0.159045,9.793847,0.096802,-0.008052,0.017987,-0.019351,0.013673,0.005582,-0.13501,-0.115479,-1.460449
124,-0.031211,-0.168186,9.817122,0.098524,-0.016805,-0.005416,-0.019351,0.013674,0.00558,-0.13501,-0.117432,-1.465088
125,-0.052098,-0.155999,9.82115,0.074376,-0.012385,-0.00955,-0.019338,0.01393,0.003893,-0.136963,-0.119629,-1.47168
126,-0.067231,-0.161994,9.768475,0.061769,-0.02397,0.042863,-0.020069,0.011146,0.008592,-0.133057,-0.115479,-1.47168
127,-0.034968,-0.173914,9.81701,0.095919,-0.02332,-0.005429,-0.018676,0.012058,0.007118,-0.130859,-0.119629,-1.460449
128,-0.065521,-0.212988,9.804904,0.080487,-0.070635,0.005836,-0.020732,0.013019,0.005362,-0.134766,-0.119629,-1.469482
129,-0.052229,-0.196313,9.810893,0.086943,-0.050257,0.000206,-0.017959,0.014587,0.004101,-0.13501,-0.119629,-1.462646
130,-0.073246,-0.184021,9.814914,0.063214,-0.045856,-0.003914,-0.018663,0.015691,0.005929,-0.13501,-0.117432,-1.467285
131,-0.040488,-0.181471,9.816852,0.092782,-0.032062,-0.005434,-0.020734,0.01302,0.005356,-0.132813,-0.117432,-1.469482
132,-0.076018,-0.187846,9.814821,0.061628,-0.050223,-0.003903,-0.017974,0.014331,0.005782,-0.132813,-0.117432,-1.460449
133,-0.014433,-0.155396,9.85219,0.108354,0.002087,-0.040143,-0.019987,0.016065,-0.00103,-0.133057,-0.115479,-1.462891
134,-0.044159,-0.179836,9.793432,0.088351,-0.031967,0.017956,-0.018667,0.008941,0.004921,-0.137207,-0.115479,-1.467285
135,-0.045743,-0.188923,9.816688,0.089615,-0.040743,-0.005432,-0.017947,0.014846,0.002409,-0.132813,-0.117432,-1.462646
136,0.007063,-0.193165,9.791297,0.140469,-0.026903,0.020527,-0.021383,0.011778,-6.5e-05,-0.132813,-0.119629,-1.462646
137,0.000603,-0.169688,9.824702,0.126057,-0.006585,-0.012669,-0.016569,0.012127,0.002119,-0.134766,-0.121826,-1.462646
138,0.00451,-0.196813,9.791226,0.138917,-0.031258,0.020518,-0.019988,0.016067,-0.001036,-0.137207,-0.113281,-1.462891
139,0.036452,-0.208929,9.839792,0.173019,-0.030773,-0.027821,-0.020019,0.012176,0.00183,-0.13501,-0.115479,-1.460449
140,0.016956,-0.174792,9.773961,0.142476,-0.006409,0.03819,-0.01861,0.013349,-0.001326,-0.136963,-0.119629,-1.462646
141,0.069341,-0.186326,9.7719,0.195185,0.000798,0.040714,-0.02071,0.013536,0.001971,-0.13501,-0.115479,-1.465088
142,0.032562,-0.214531,9.839685,0.170829,-0.037347,-0.027837,-0.015176,0.013041,0.000645,-0.141357,-0.115479,-1.465088
143,0.012579,-0.187551,9.797151,0.14209,-0.019587,0.014783,-0.02068,0.014054,-0.001402,-0.137207,-0.113281,-1.467285
144,0.025898,-0.171034,9.803236,0.148935,0.000773,0.009057,-0.020743,0.013018,0.005336,-0.136963,-0.119629,-1.462646
145,0.023725,-0.187646,9.849765,0.15241,-0.014762,-0.037704,-0.018626,0.013092,0.000353,-0.133057,-0.113281,-1.462891
146,0.004227,-0.153468,9.783963,0.121905,0.009693,0.028284,-0.020712,0.013537,0.001963,-0.136963,-0.117676,-1.467285
147,-0.016131,-0.133966,9.764723,0.095483,0.020827,0.047521,-0.018659,0.012573,0.00372,-0.13501,-0.119629,-1.467041
148,0.010956,-0.113449,9.823535,0.11427,0.050326,-0.010715,-0.019349,0.013933,0.003862,-0.141113,-0.117676,-1.465088
149,-0.024478,-0.119572,9.821435,0.082643,0.032171,-0.009106,-0.014488,0.011684,0.000494,-0.136963,-0.117676,-1.465088
150,-0.010131,-0.088104,9.781018,0.084992,0.065939,0.031859,-0.022078,0.013144,5.5e-05,-0.136963,-0.119629,-1.462646
151,-0.027028,-0.123232,9.821383,0.08103,0.027788,-0.009132,-0.015901,0.013883,0.004149,-0.136963,-0.117676,-1.465088
152,-0.027445,-0.110286,9.774817,0.075957,0.039044,0.037583,-0.020715,0.013539,0.001954,-0.130859,-0.115479,-1.465088
153,-0.0488,-0.105542,9.802127,0.054052,0.036751,0.010089,-0.019335,0.014194,0.00217,-0.13916,-0.115479,-1.462891
154,-0.016416,-0.110328,9.827475,0.08629,0.043786,-0.014945,-0.018662,0.012574,0.00371,-0.138916,-0.121826,-1.460449
155,-0.032347,-0.130793,9.821269,0.077809,0.019046,-0.009179,-0.020716,0.01354,0.001949,-0.13501,-0.117432,-1.460449
156,-0.013112,-0.13209,9.770642,0.0959,0.023765,0.041643,-0.020043,0.011919,0.003489,-0.13501,-0.117432,-1.462646
157,-0.000569,-0.130208,9.823333,0.106802,0.030623,-0.01088,-0.017974,0.011214,0.003562,-0.136963,-0.117676,-1.465088
158,-0.015875,-0.142967,9.793852,0.096554,0.012668,0.018263,-0.015248,0.012001,0.007368,-0.137207,-0.113281,-1.465088
159,0.020968,-0.187687,9.832206,0.146263,-0.016162,-0.020231,-0.020751,0.013019,0.005313,-0.133057,-0.113281,-1.460693
160,0.001094,-0.160704,9.789725,0.118074,0.001754,0.022356,-0.018026,0.013805,0.009118,-0.13916,-0.117676,-1.467285
161,0.000188,-0.155224,9.766436,0.114819,0.006368,0.045695,-0.021425,0.014642,0.003769,-0.13501,-0.119629,-1.462646
162,0.012411,-0.153463,9.819135,0.126119,0.013161,-0.006836,-0.017993,0.014329,0.005747,-0.134766,-0.121826,-1.460449
163,0.016479,-0.180438,9.785561,0.138627,-0.011373,0.026438,-0.018683,0.012315,0.005382,-0.136963,-0.121826,-1.462646
164,0.015716,-0.174878,9.762276,0.135825,-0.006768,0.04978,-0.019391,0.013413,0.007209,-0.13501,-0.117432,-1.460449
165,0.002726,-0.141239,9.875859,0.11226,0.02205,-0.063519,-0.018012,0.010693,0.00692,-0.132813,-0.117432,-1.467285
166,0.012177,-0.19336,9.808713,0.138674,-0.024731,0.003072,-0.018648,0.016215,0.002518,-0.13916,-0.117676,-1.465088
167,0.011276,-0.187753,9.785431,0.13543,-0.02011,0.026407,-0.018667,0.012579,0.003692,-0.13501,-0.117432,-1.460449
168,0.024754,-0.170977,9.79165,0.142282,0.000216,0.020547,-0.016652,0.011084,0.00882,-0.13501,-0.115479,-1.462891
169,-0.011126,-0.184744,9.812678,0.112898,-0.024685,-0.001055,-0.022099,0.012895,0.001707,-0.136963,-0.117676,-1.465088
170,0.008199,-0.185923,9.762081,0.131051,-0.019816,0.049732,-0.018668,0.012579,0.003688,-0.13916,-0.113281,-1.469727
171,0.0063,-0.195268,9.785288,0.132187,-0.028787,0.026384,-0.020048,0.0153,0.003975,-0.133057,-0.115479,-1.465088
172,-0.015677,-0.198,9.835802,0.112859,-0.038041,-0.024399,-0.01865,0.012843,0.002002,-0.132813,-0.121826,-1.464844
173,0.008416,-0.231526,9.774866,0.146336,-0.062215,0.036369,-0.017922,0.015385,-0.001002,-0.132813,-0.117432,-1.465088
174,-0.017295,-0.186628,9.789249,0.10689,-0.028743,0.022269,-0.01798,0.01122,0.003539,-0.134766,-0.121826,-1.467041
175,-0.037449,-0.166871,9.770047,0.080549,-0.017511,0.041491,-0.01867,0.01258,0.003682,-0.13916,-0.119629,-1.464844
176,-0.025291,-0.165221,9.822774,0.091792,-0.010886,-0.011073,-0.020012,0.015829,0.0006,-0.13916,-0.117676,-1.462646
177,-0.059747,-0.156571,9.774041,0.05576,-0.015307,0.037381,-0.01869,0.012316,0.005362,-0.13916,-0.115479,-1.462891
178,-0.042065,-0.179992,9.793164,0.080519,-0.030914,0.018159,-0.019361,0.013941,0.003821,-0.136963,-0.119629,-1.469482
179,-0.068349,-0.142699,9.830807,0.042783,-0.004318,-0.019298,-0.018652,0.012846,0.001992,-0.137207,-0.115479,-1.467285
180,-0.063049,-0.154612,9.750697,0.051357,-0.014962,0.060707,-0.018653,0.012846,0.001991,-0.141113,-0.117676,-1.467285
181,-0.055563,-0.120416,9.81383,0.04637,0.020675,-0.001908,-0.019363,0.010568,0.003306,-0.137207,-0.115479,-1.462891
182,-0.057992,-0.137183,9.860253,0.05015,0.004736,-0.048561,-0.016563,0.015778,0.000896,-0.13501,-0.115479,-1.458252
183,-0.042976,-0.098053,9.796879,0.050029,0.0457,0.015458,-0.021434,0.011275,0.003223,-0.132813,-0.117432,-1.465088
184,-0.019052,-0.139067,9.759151,0.086137,0.014781,0.052918,-0.017254,0.010392,1.5e-05,-0.13501,-0.113281,-1.469482
185,-0.031802,-0.098394,9.849616,0.060222,0.050079,-0.03716,-0.021395,0.01518,0.000365,-0.13501,-0.117432,-1.462646
186,0.026049,-0.135036,9.814158,0.126921,0.035063,-0.001551,-0.017965,0.011487,0.00184,-0.136963,-0.119629,-1.464844
187,-0.008185,-0.126117,9.765418,0.090978,0.030777,0.046924,-0.017275,0.0135,0.002207,-0.134766,-0.121826,-1.464844
188,0.007556,-0.172232,9.854186,0.122223,-0.00561,-0.042247,-0.022127,0.016009,0.003871,-0.138916,-0.121826,-1.464844
189,0.021814,-0.140769,9.814087,0.124311,0.02845,-0.001605,-0.020037,0.015569,0.002267,-0.136963,-0.117676,-1.465088
190,0.060129,-0.16301,9.782711,0.16787,0.020039,0.029895,-0.013177,0.011553,0.005732,-0.136963,-0.119629,-1.464844
191,0.052682,-0.146941,9.839567,0.15545,0.033038,-0.026835,-0.015206,0.016167,0.002796,-0.13916,-0.117676,-1.467285
192,0.142603,0.239795,9.81404,0.10714,0.426419,0.004532,-0.015418,0.013502,0.019628,-0.13501,-0.115479,-1.462891
193,0.211695,0.625087,9.839178,0.039562,0.812525,-0.014989,-0.0244,0.017469,-0.035819,-0.133057,-0.113281,-1.460693
194,0.26259,0.126506,9.756083,0.258016,0.360531,0.062326,-0.018237,0.004478,-0.089025,-0.134766,-0.121826,-1.462646
195,-0.083165,-0.630202,9.835083,0.193315,-0.467753,-0.029912,-0.010846,0.034763,0.042281,-0.13916,-0.117676,-1.458252
196,-0.351896,-1.117979,9.797899,0.109243,-1.018577,-0.001746,-0.020004,0.00956,0.053128,-0.136963,-0.121826,-1.462646
197,0.029149,-0.176302,9.833032,0.143186,-0.002608,-0.020926,-0.028584,0.005071,0.020579,-0.137207,-0.113281,-1.460693
198,0.028322,-0.178934,9.832987,0.142602,-0.004798,-0.020933,-0.024893,0.011333,0.002886,-0.141113,-0.124023,-1.460205
199,0.008228,-0.159767,9.813817,0.116256,0.00652,-0.001743,-0.025584,0.012694,0.003028,-0.13501,-0.117432,-1.458252
200,0.007626,-0.154591,9.790581,0.11353,0.011309,0.021548,-0.023492,0.012254,0.001426,-0.133057,-0.115479,-1.460449
201,-0.013135,-0.142415,9.794625,0.089395,0.015714,0.017439,-0.01521,0.012795,0.002274,-0.130859,-0.119629,-1.458252
202,0.005028,-0.158109,9.790527,0.111967,0.006963,0.021525,-0.017949,0.015133,0.00065,-0.133057,-0.115479,-1.462891
203,-0.031858,-0.179339,9.834515,0.084687,-0.025061,-0.023117,-0.015879,0.014425,0.000732,-0.141113,-0.117676,-1.460449
204,-0.032641,-0.173469,9.811286,0.081967,-0.020256,0.000177,-0.01933,0.014481,0.000419,-0.13501,-0.117432,-1.460449
205,0.039569,-0.191337,9.782302,0.155703,-0.012718,0.029681,-0.015721,0.01968,-0.010535,-0.13916,-0.117676,-1.467285
206,0.279609,-0.340784,9.843198,0.433223,-0.070298,-0.030596,-0.01314,0.017035,-0.154013,-0.134766,-0.121826,-1.460449
207,0.123083,-0.723931,9.816194,0.414235,-0.485947,-0.010202,-0.01816,-0.005553,-0.462189,-0.13501,-0.119629,-1.467041
208,-0.429955,-0.61199,9.813709,-0.149171,-0.56759,-0.011969,-0.026808,0.001708,-0.559363,-0.13501,-0.119629,-1.462646
209,-0.152956,0.037938,9.804134,-0.107327,0.138751,0.008857,-0.028948,0.008453,-0.519434,-0.132813,-0.119629,-1.467041
210,-0.249033,-0.144365,9.794573,-0.140082,-0.063552,0.015093,-0.033329,-1.4e-05,-0.277127,-0.13916,-0.119629,-1.464844
211,-0.423984,-0.633517,9.836294,-0.149865,-0.581117,-0.034832,-0.024884,0.004177,-0.298465,-0.132813,-0.115479,-1.474121
212,-0.514274,-0.58716,9.79962,-0.254814,-0.565378,0.001612,-0.030177,-0.002977,-0.503672,-0.134766,-0.121826,-1.469238
213,0.089097,0.116391,10.380139,0.091589,0.305696,-0.563581,-0.083254,-0.022399,-0.709062,-0.136963,-0.119629,-1.476074
214,0.345887,0.835605,10.518834,0.097361,1.063708,-0.690775,0.055853,-0.354921,-0.80253,-0.138916,-0.125977,-1.471436
215,-0.077501,1.556807,12.32388,-0.514922,1.59546,-2.495694,0.774696,0.069975,-0.606727,-0.136475,-0.136475,-1.475586
216,-0.268211,1.336599,14.719434,-0.574639,1.246498,-4.905839,0.809533,0.104131,-0.300169,-0.136475,-0.138672,-1.466553
217,-0.458121,0.229887,15.049531,-0.367755,0.04615,-5.240983,0.529216,0.339194,-0.38654,-0.134521,-0.132324,-1.462158
218,-0.725177,-0.309884,15.172717,-0.391569,-0.568162,-5.364814,0.009807,0.552411,-0.63734,-0.128906,-0.113281,-1.458496
219,-0.776853,-0.208569,14.397212,-0.405924,-0.409737,-4.595372,-0.649764,0.787374,-0.700824,-0.121582,-0.085693,-1.443604
220,-0.876075,0.590562,13.403778,-0.664043,0.474848,-3.607741,-1.06415,0.941159,-0.560357,-0.116455,-0.049561,-1.435791
221,-0.791442,1.946038,12.745126,-0.880546,1.953412,-2.925355,-0.94715,1.053712,-0.095147,-0.103027,-0.015625,-1.418945
222,-0.2836,1.242934,13.131235,-0.086116,1.533206,-3.290563,-0.284292,0.962672,0.391026,-0.101563,0.005615,-1.403809
223,-0.541958,0.407038,13.149717,-0.007945,0.693818,-3.336167,0.129476,0.654498,0.18816,-0.102051,0.022461,-1.395508
224,-0.602724,0.749398,13.277883,-0.079587,0.998862,-3.462199,0.305429,0.419318,0.024445,-0.106689,0.032959,-1.375732
225,-0.574188,1.193015,14.333385,-0.059712,1.417671,-4.511589,0.563852,0.212143,0.034427,-0.115234,0.043457,-1.355713
226,-0.603517,1.830511,15.607941,-0.142295,1.966825,-5.789655,0.719667,0.091696,0.106632,-0.117432,0.04541,-1.335693
227,-0.581781,2.480998,16.88879,-0.177265,2.495004,-7.083068,0.907203,0.065083,0.189894,-0.130127,0.049561,-1.317871
228,-0.91941,2.260491,17.542413,-0.340229,2.034061,-7.778087,1.030434,0.111374,0.284968,-0.132324,0.049561,-1.293213
229,-1.289442,1.531547,17.734129,-0.399129,1.057242,-7.998194,1.029561,0.258563,0.276047,-0.142822,0.053467,-1.275391
230,-1.14676,1.177487,17.574038,-0.072093,0.592525,-7.827858,1.032827,0.376529,0.278746,-0.151123,0.05127,-1.257568
231,-0.863123,0.628142,17.307734,0.449882,-0.006355,-7.522008,1.007808,0.443379,0.392359,-0.151123,0.053467,-1.246338
232,-1.405605,-0.634138,16.478097,0.340798,-1.492755,-6.666346,0.901206,0.432215,0.598057,-0.14917,0.053467,-1.223877
233,-0.915114,-0.229313,15.101301,0.662941,-1.029874,-5.268352,0.72022,0.395157,0.766533,-0.157715,0.057617,-1.208252
234,-0.691338,0.426679,14.323142,0.681559,-0.403628,-4.511552,0.732369,0.282382,0.816163,-0.159668,0.051025,-1.197021
235,-0.600438,1.047461,14.265754,0.637622,0.092292,-4.489487,1.090077,0.169391,0.835389,-0.163818,0.051025,-1.181152
236,-0.607874,1.090907,14.397056,0.698244,-0.047853,-4.621356,1.366472,0.090974,0.719133,-0.169678,0.03833,-1.169678
237,-0.780369,0.975396,14.445006,0.651102,-0.420876,-4.665337,1.543079,0.071819,0.539135,-0.179688,0.025391,-1.162598
238,-0.559695,1.23616,14.52974,0.870649,-0.3348,-4.750259,1.691316,0.119143,0.410145,-0.181396,0.012695,-1.155518
239,-0.423998,1.20431,14.348544,1.084646,-0.537896,-4.541387,1.783641,0.193786,0.386152,-0.178711,-0.010498,-1.143555
240,-0.077513,0.895809,13.757265,1.538489,-0.874559,-3.859683,1.8181,0.245512,0.424537,-0.182373,-0.027344,-1.13623
241,-0.331914,0.413293,13.047823,1.468088,-1.539345,-3.07129,1.829874,0.299742,0.379218,-0.179688,-0.044189,-1.128906
242,-0.27613,-0.273631,12.276305,1.744929,-2.25107,-2.134777,1.907542,0.397611,0.269656,-0.181152,-0.067627,-1.125977
243,-0.396445,-0.857005,11.354673,1.791096,-2.875343,-1.065746,1.94622,0.417976,0.069415,-0.174072,-0.09082,-1.114014
244,-0.54105,-0.800789,10.530023,1.610329,-2.902109,-0.227052,1.908424,0.517403,0.036762,-0.171631,-0.109619,-1.111084
245,-0.594091,-0.799027,9.568643,1.493886,-2.882595,0.756944,1.802592,0.57835,0.114943,-0.168945,-0.128662,-1.101563
246,-0.547473,-0.807676,8.525163,1.438605,-2.779802,1.823223,1.702677,0.631009,0.197371,-0.162109,-0.147705,-1.094238
247,-0.411499,-0.545704,7.453651,1.352793,-2.360674,2.839913,1.747283,0.63834,0.221073,-0.155273,-0.166504,-1.089111
248,-0.219636,-0.341303,6.60647,1.362789,-2.003517,3.653341,1.823524,0.597515,0.266888,-0.150391,-0.189697,-1.08374
249,-0.184415,-0.136831,5.804763,1.217378,-1.695279,4.391343,1.849085,0.538512,0.196549,-0.143555,-0.210693,-1.074219
250,-0.197682,0.049707,5.038156,1.022709,-1.410438,5.081039,1.871342,0.496311,0.101629,-0.14502,-0.231934,-1.075684
251,-0.194667,0.141259,4.296522,0.861313,-1.190358,5.768115,1.874521,0.447162,-0.014364,-0.140381,-0.248779,-1.061768
252,-0.194535,0.035438,3.465075,0.716831,-1.095004,6.598248,1.814285,0.400642,-0.128828,-0.137695,-0.273926,-1.056396
253,-0.172862,-0.086444,2.764471,0.613013,-1.0197,7.309911,1.719721,0.351482,-0.254386,-0.137207,-0.291016,-1.051514
254,-0.250828,0.147785,1.759834,0.216737,-0.549167,8.129495,1.693463,0.294806,-0.28442,-0.132324,-0.312012,-1.043945
255,-0.257193,0.271086,0.644435,-0.127523,-0.084047,9.083583,1.759174,0.221178,-0.230923,-0.131836,-0.331055,-1.036621
256,-0.333792,0.326682,0.042504,-0.382226,0.142164,9.581098,1.725057,0.150563,-0.141266,-0.126953,-0.349854,-1.033936
257,-0.521229,0.32462,-0.474923,-0.705023,0.263331,10.002954,1.536656,0.080196,-0.078486,-0.126709,-0.364746,-1.022217
258,-0.554094,0.556448,-1.031319,-0.963095,0.666846,10.367683,1.285023,0.022818,-0.036458,-0.124023,-0.379639,-1.01709
259,-0.603696,1.000835,-1.535775,-1.276321,1.2309,10.574647,1.038707,-0.038234,-0.002931,-0.12793,-0.394287,-1.012207
260,-0.549508,1.515683,-2.017411,-1.503682,1.886386,10.734452,0.841189,-0.102935,0.021563,-0.134033,-0.398682,-1.009766
261,-0.635566,1.941366,-2.539086,-1.847219,2.434984,10.943348,0.725323,-0.178907,0.057637,-0.135742,-0.407227,-1.00293
262,-0.770445,2.154414,-2.700051,-2.070066,2.641665,10.935965,0.676007,-0.216205,0.049559,-0.133545,-0.415527,-1.000244
263,-0.849489,1.889767,-2.721356,-2.079172,2.413468,11.058007,0.531572,-0.213147,0.01702,-0.137451,-0.417725,-1.002441
264,-0.888384,1.154934,-3.004026,-2.014962,1.92257,11.654131,0.262753,-0.200175,-0.103583,-0.143799,-0.419922,-1.002441
265,-1.001898,0.48868,-3.484312,-2.096067,1.545009,12.382217,-0.046846,-0.187389,-0.209031,-0.147949,-0.420166,-0.99585
266,-0.876177,0.15604,-3.840481,-1.999006,1.468066,12.87701,-0.37283,-0.165682,-0.278054,-0.137695,-0.411377,-1.000488
267,-0.729058,0.117934,-4.254639,-1.965616,1.654324,13.283548,-0.743954,-0.211469,-0.380914,-0.14209,-0.405273,-1.00293
268,-0.715292,-0.063883,-4.506432,-1.964777,1.589218,13.61236,-1.042594,-0.284651,-0.373339,-0.146729,-0.390381,-1.010254
269,-0.831734,-0.424578,-4.569501,-1.978705,1.236464,13.851004,-1.223092,-0.376558,-0.199426,-0.14917,-0.375732,-1.015137
270,-0.770574,-0.640734,-4.333317,-1.770055,0.934761,13.784427,-1.457874,-0.486931,-0.029024,-0.153564,-0.363037,-1.02002
271,-0.783206,-0.635638,-3.751253,-1.584662,0.653801,13.298416,-1.803693,-0.587473,0.048685,-0.1604,-0.342041,-1.029541
272,-0.823035,-0.638495,-2.927061,-1.364062,0.270254,12.590938,-2.149598,-0.681067,0.054161,-0.171631,-0.321045,-1.037109
273,-0.817026,-0.601828,-1.934224,-1.083999,-0.104668,11.70603,-2.335023,-0.740962,0.04523,-0.172363,-0.293701,-1.044678
274,-0.689052,-0.712657,-1.090867,-0.709793,-0.484051,11.010384,-2.316448,-0.802257,0.108311,-0.1875,-0.270508,-1.052246
275,-0.493744,-0.934466,0.002742,-0.207788,-0.992776,10.109692,-2.305474,-0.832865,0.159205,-0.192627,-0.239014,-1.062256
276,-0.138725,-1.508083,0.939951,0.482094,-1.679606,9.461353,-2.353967,-0.904026,0.151936,-0.203613,-0.213867,-1.074219
277,0.151854,-2.370149,1.862427,1.167894,-2.617225,8.866675,-2.510937,-1.037428,0.093063,-0.212891,-0.186523,-1.077393
278,0.320906,-3.160867,3.257004,1.772978,-3.632888,7.724778,-2.711609,-1.203938,0.043308,-0.226318,-0.152832,-1.085205
279,0.361897,-3.310215,5.41396,2.129777,-4.240019,5.583959,-3.044612,-1.334782,0.089016,-0.239746,-0.121338,-1.095215
280,0.491297,-3.064335,7.58717,2.351745,-4.344671,3.271857,-3.362168,-1.400373,0.092686,-0.255615,-0.077148,-1.103271
281,0.688774,-2.378986,9.559664,2.370766,-3.852335,1.03492,-3.387893,-1.420593,0.095737,-0.266846,-0.043457,-1.108887
282,0.974647,-1.029057,11.834683,2.196003,-2.661432,-1.595621,-3.068903,-1.392851,0.118248,-0.276367,-0.007813,-1.119141
283,1.428741,0.012558,13.573736,2.144743,-1.538736,-3.577825,-2.713045,-1.378463,0.057132,-0.289551,0.023682,-1.126709
284,1.667965,0.006368,15.100868,2.149229,-1.415396,-5.160046,-2.233444,-1.372,-0.015781,-0.300781,0.044678,-1.134277
285,1.860113,-0.211224,17.485926,2.154216,-1.612489,-7.565701,-1.843338,-1.310774,-0.024858,-0.313477,0.059326,-1.150391
286,2.019628,-0.64747,19.930178,2.13769,-2.003311,-10.014375,-1.730964,-1.194743,0.003779,-0.318115,0.073975,-1.166504
287,2.188455,-0.359518,22.160152,1.852987,-1.6215,-12.321246,-1.767194,-1.016051,0.02277,-0.318359,0.088867,-1.185059
288,2.038681,0.68026,23.809373,1.016124,-0.489475,-14.066447,-1.896811,-0.801079,0.020001,-0.316895,0.105713,-1.2146
289,1.879477,1.689154,24.663131,0.212956,0.743604,-14.967084,-1.914657,-0.580392,0.003888,-0.317383,0.126953,-1.244385
290,1.566291,2.154779,26.033064,-0.56302,1.436512,-16.310383,-1.90447,-0.401077,-0.07472,-0.313477,0.139648,-1.269531
291,1.156451,2.547955,27.169205,-1.374403,2.085791,-17.385376,-1.82773,-0.257249,-0.114774,-0.307861,0.158691,-1.29248
292,0.99473,2.935105,28.031408,-1.898142,2.82528,-18.18304,-1.661422,-0.131333,-0.125454,-0.306152,0.173584,-1.328857
293,0.840684,3.244026,28.661401,-2.337563,3.473294,-18.738397,-1.421487,-0.045598,-0.109381,-0.296143,0.188477,-1.356201
294,0.793921,3.563826,29.164389,-2.621571,4.103858,-19.173006,-1.059829,0.048165,-0.083587,-0.294434,0.201172,-1.374512
295,0.908505,3.792073,29.60871,-2.665356,4.609581,-19.573109,-0.673405,0.142202,-0.048969,-0.288574,0.211914,-1.370361
296,1.041895,4.166183,29.638164,-2.638292,5.156369,-19.569508,-0.302676,0.268053,-0.0136,-0.286621,0.218262,-1.364014
297,1.331406,4.468654,29.290076,-2.347035,5.581004,-19.22165,0.044401,0.397138,0.014988,-0.280518,0.218262,-1.348145
298,1.655975,4.588265,28.684659,-1.885166,5.747365,-18.648077,0.405381,0.533416,0.061917,-0.27832,0.212158,-1.325684
299,1.889549,4.422144,27.560577,-1.339451,5.522066,-17.581075,0.712634,0.627479,0.060611,-0.278076,0.205811,-1.293945
300,1.972864,3.954418,26.609316,-0.821416,4.904993,-16.698486,1.033667,0.721031,0.055265,-0.277832,0.193115,-1.264404
301,2.041323,3.382924,25.624128,-0.254614,4.120073,-15.783276,1.386515,0.791792,0.047541,-0.277344,0.178223,-1.239258
302,1.94059,2.551343,24.72729,0.251582,2.987568,-14.940237,1.655283,0.881612,-0.004883,-0.270752,0.159424,-1.216309
303,1.786269,1.611484,23.814194,0.758355,1.707818,-14.049219,1.872652,0.978292,-0.037553,-0.276367,0.135986,-1.19751
304,1.458122,0.47611,22.801418,1.169671,0.184473,-13.009063,2.03452,1.080127,-0.028674,-0.267578,0.117188,-1.174561
305,1.300967,-0.186211,21.470496,1.593397,-0.812885,-11.62294,2.172776,1.184255,-0.00751,-0.262695,0.091797,-1.162598
306,1.219181,-0.58002,20.055898,1.985369,-1.499685,-10.133432,2.312453,1.273014,-0.017824,-0.251465,0.064453,-1.145996
307,1.049429,-1.087182,18.475006,2.287709,-2.282995,-8.439434,2.539708,1.327099,-0.034146,-0.238281,0.037354,-1.135986
308,0.995134,-1.376999,16.915807,2.591022,-2.799948,-6.753975,2.811181,1.365136,-0.06861,-0.235107,0.003418,-1.132813
309,0.88914,-1.474461,15.029869,2.701026,-3.076305,-4.750311,3.066798,1.353079,-0.139038,-0.219482,-0.034424,-1.115723
310,0.897141,-1.566633,13.113214,2.836287,-3.239793,-2.703579,3.225231,1.352458,-0.100461,-0.214111,-0.072266,-1.10791
311,0.826751,-1.779536,11.629404,2.903457,-3.526464,-1.059897,3.249042,1.30431,-0.063624,-0.200684,-0.10791,-1.100098
312,0.840481,-1.716207,10.281218,2.920516,-3.476907,0.393248,3.255157,1.259507,-0.027172,-0.187012,-0.147949,-1.089844
313,0.837704,-1.883727,9.449583,3.016345,-3.694216,1.399031,3.292346,1.224933,0.026065,-0.181641,-0.186035,-1.081787
314,0.771528,-1.816525,8.06703,2.836784,-3.524229,2.848678,3.290662,1.191417,0.002488,-0.164063,-0.219482,-1.06958
315,0.676372,-2.054565,6.958145,2.71008,-3.641263,4.113045,3.232404,1.175298,-0.024322,-0.156738,-0.259521,-1.065918
316,0.415718,-2.378136,5.619134,2.34403,-3.747816,5.586705,3.144774,1.174738,-0.034886,-0.141357,-0.291016,-1.049316
317,0.382931,-2.424972,4.252084,2.056173,-3.447151,6.985213,2.97918,1.177228,-0.039523,-0.134033,-0.324707,-1.043701
318,0.271328,-2.225918,2.68014,1.524562,-2.813986,8.409904,2.762233,1.123125,-0.101001,-0.122803,-0.356201,-1.033691
319,0.18624,-1.911312,0.987293,0.901581,-1.961894,9.832682,2.546238,1.03856,-0.173388,-0.111572,-0.385742,-1.023682
320,0.097856,-1.661843,-0.736004,0.232707,-1.095833,11.247199,2.410753,0.910358,-0.176765,-0.098389,-0.410889,-1.009521
321,0.023821,-1.476552,-2.302939,-0.399451,-0.288857,12.503591,2.235232,0.742822,-0.185848,-0.087158,-0.438232,-0.999512
322,-0.177093,-0.993451,-3.762423,-1.201118,0.723671,13.446854,2.045479,0.567981,-0.229533,-0.088623,-0.455078,-0.98999
323,-0.123505,-0.335734,-4.806314,-1.671519,1.814478,13.952932,1.847406,0.392072,-0.254245,-0.082031,-0.473877,-0.978271
324,-0.115326,0.04242,-5.460503,-1.990663,2.494894,14.244875,1.608881,0.207943,-0.281598,-0.083496,-0.49292,-0.977539
325,-0.180223,0.185716,-5.926816,-2.258145,2.874307,14.485235,1.363982,0.046655,-0.275313,-0.078857,-0.505615,-0.961426
326,-0.314486,0.499391,-6.302485,-2.576873,3.323797,14.543577,1.055018,-0.077628,-0.273166,-0.076416,-0.518311,-0.95874
327,-0.170031,0.808002,-6.531916,-2.574189,3.781726,14.547619,0.74893,-0.169337,-0.245687,-0.080566,-0.520508,-0.956543
328,-0.279554,0.88428,-6.724744,-2.745173,3.94099,14.610058,0.550706,-0.254007,-0.17436,-0.08667,-0.529053,-0.949463
329,-0.245826,0.578418,-6.581321,-2.600552,3.667109,14.660174,0.414934,-0.300892,-0.107573,-0.086426,-0.531006,-0.956299
330,-0.259755,0.205467,-6.578132,-2.536303,3.38564,14.861059,0.188895,-0.334754,-0.074018,-0.090576,-0.533203,-0.945068
331,-0.058181,-0.19111,-6.876759,-2.367368,3.295503,15.368306,-0.06345,-0.389181,-0.023725,-0.092773,-0.529053,-0.951904
332,-0.003419,-0.84656,-6.917407,-2.197474,2.806756,15.801033,-0.336306,-0.469544,0.019047,-0.096924,-0.53125,-0.947266
333,-0.009832,-1.320114,-6.895215,-2.080466,2.395549,16.075234,-0.649813,-0.55523,0.045137,-0.105469,-0.518799,-0.954346
334,-0.050879,-1.555149,-6.718306,-1.971009,2.06876,16.088954,-0.975032,-0.653588,0.077211,-0.114258,-0.508301,-0.957031
335,-0.179869,-2.011497,-6.373609,-1.843271,1.432896,16.077643,-1.334929,-0.747156,0.079805,-0.12085,-0.495605,-0.966309
336,-0.426249,-2.357824,-5.890228,-1.793668,0.76235,15.86547,-1.761204,-0.809666,0.030031,-0.127686,-0.474609,-0.976074
337,-0.388036,-2.09782,-5.490643,-1.606566,0.703556,15.435944,-2.180926,-0.853054,0.00359,-0.140625,-0.453857,-0.985596
338,-0.262962,-1.872263,-5.246245,-1.378599,0.706897,15.169506,-2.548688,-0.923129,-0.000632,-0.151855,-0.424316,-0.995605
339,0.002233,-1.878341,-5.062094,-0.989569,0.577406,15.088879,-2.790943,-1.043669,-0.004358,-0.161133,-0.390625,-1.012451
340,0.244409,-2.253266,-4.514034,-0.452051,-0.029649,14.84321,-2.897226,-1.206931,0.046519,-0.176514,-0.361328,-1.022461
341,0.702759,-2.802114,-3.630832,0.402184,-0.845812,14.356878,-2.902754,-1.387303,0.100803,-0.189941,-0.329834,-1.032227
342,0.883828,-3.693268,-1.820706,1.246055,-2.360391,13.070089,-2.956887,-1.548842,0.165776,-0.20752,-0.296143,-1.04248
343,0.774513,-4.572103,0.590311,1.865171,-4.091543,11.089747,-3.077972,-1.646166,0.191763,-0.227295,-0.258545,-1.048096
344,0.766941,-4.741175,3.355219,2.382437,-5.167434,8.418925,-3.24472,-1.644145,0.26393,-0.240723,-0.2229,-1.062744
345,0.687453,-4.626626,6.061324,2.6263,-5.841372,5.618411,-3.489616,-1.591481,0.2425,-0.260742,-0.185059,-1.066162
346,0.849833,-4.087986,8.311328,2.808074,-5.769861,3.080372,-3.689966,-1.534793,0.109922,-0.27417,-0.14502,-1.078857
347,0.932027,-4.061086,10.516522,2.917736,-6.030024,0.698578,-3.722575,-1.456701,0.079583,-0.285889,-0.10083,-1.089111
348,1.202834,-3.889317,12.401763,3.045206,-5.89601,-1.426495,-3.653734,-1.445584,0.093749,-0.310059,-0.063232,-1.088135
349,1.555648,-3.434123,14.197844,3.08104,-5.344713,-3.517994,-3.509593,-1.496509,0.050889,-0.317383,-0.023193,-1.100586
350,1.978028,-3.214401,16.781852,3.17298,-5.033913,-6.325342,-3.202356,-1.580483,0.059829,-0.330811,0.008301,-1.112793
351,2.034685,-2.55433,19.995149,2.680396,-4.374888,-9.786003,-2.920736,-1.57836,0.086774,-0.344238,0.041992,-1.114014
352,2.279139,-1.510347,22.616094,2.153812,-3.118592,-12.649661,-2.721029,-1.48954,0.143858,-0.359375,0.062744,-1.139404
353,2.428112,-0.243118,24.621699,1.423579,-1.531683,-14.840269,-2.537096,-1.334185,0.151875,-0.366211,0.088135,-1.14917
354,2.456638,1.072837,26.624908,0.546161,0.132635,-16.940169,-2.368928,-1.078124,0.174233,-0.368896,0.109131,-1.165527
355,2.345921,2.028303,28.211415,-0.328904,1.497188,-18.526558,-2.265057,-0.78256,0.168821,-0.377686,0.128174,-1.188477
356,2.202426,2.821061,28.758518,-1.059615,2.774215,-19.014501,-2.198563,-0.500451,0.098733,-0.36792,0.145264,-1.211426
357,2.242608,3.266516,28.576126,-1.385959,3.766898,-18.755743,-2.020814,-0.292772,0.036742,-0.364014,0.159912,-1.232178
358,1.911252,2.964531,28.698136,-1.838749,3.881317,-18.780291,-1.703239,-0.18241,-0.015215,-0.366211,0.16626,-1.263672
359,1.589591,2.812918,29.179785,-2.308384,4.077058,-19.168936,-1.378408,-0.087071,-0.052469,-0.358154,0.177002,-1.286377
360,1.449959,3.024012,29.33426,-2.613989,4.584616,-19.237028,-1.070296,-0.010666,-0.060945,-0.356445,0.1875,-1.298096
361,1.297595,3.105244,29.551995,-2.862832,4.885997,-19.38618,-0.741584,0.066704,-0.025667,-0.348145,0.189941,-1.311523
362,1.313547,3.207935,29.58282,-2.888627,5.159059,-19.379741,-0.431004,0.154642,0.020179,-0.354492,0.191895,-1.304932
363,1.440363,3.52737,29.275733,-2.778237,5.567399,-19.046808,-0.116616,0.245396,0.047109,-0.348389,0.198242,-1.29834
364,1.709208,3.659745,28.898647,-2.430072,5.739328,-18.693464,0.241447,0.33004,0.056988,-0.342529,0.204834,-1.276123
365,1.964427,3.611861,28.331097,-1.984505,5.629572,-18.185913,0.61191,0.413213,0.049309,-0.346191,0.191895,-1.26001
366,2.099598,3.404345,27.545277,-1.552,5.236892,-17.480152,0.96419,0.481459,0.026412,-0.342041,0.189941,-1.230957
367,2.182193,2.999377,26.883855,-1.095246,4.576538,-16.914524,1.264769,0.587779,-0.020978,-0.343994,0.181396,-1.214844
368,2.12626,2.447578,26.075817,-0.680893,3.683435,-16.195239,1.524177,0.725427,-0.069859,-0.345703,0.164551,-1.194092
369,1.956247,1.665115,24.82095,-0.251245,2.498439,-15.013791,1.7498,0.870121,-0.069079,-0.339355,0.15625,-1.164795
370,1.817543,0.708926,23.504849,0.270143,1.149442,-13.742948,1.934823,0.987049,-0.072217,-0.336426,0.130859,-1.152832
371,1.616937,-0.31324,21.961245,0.751361,-0.260804,-12.195378,2.039237,1.061565,-0.090928,-0.32959,0.111816,-1.140869
372,1.284305,-0.943552,20.583466,0.9756,-1.296006,-10.768037,2.152663,1.143886,-0.105089,-0.31665,0.088867,-1.131104
373,1.162172,-1.429141,19.215679,1.340073,-2.106276,-9.328438,2.269845,1.2081,-0.08959,-0.313721,0.065674,-1.116943
374,1.201516,-1.774804,17.881421,1.793048,-2.707269,-7.900999,2.393345,1.258697,-0.085467,-0.302734,0.044678,-1.111816
375,1.148868,-2.05599,16.705974,2.10633,-3.248328,-6.607705,2.524163,1.279654,-0.103085,-0.291504,0.015381,-1.099609
376,1.15388,-2.171406,15.505677,2.396864,-3.582131,-5.282917,2.704168,1.318302,-0.111069,-0.280273,-0.018311,-1.096191
377,1.345572,-2.265141,14.398852,2.829062,-3.825313,-4.029786,2.847494,1.336725,-0.134103,-0.268799,-0.052002,-1.09082
378,1.090481,-2.278189,13.166535,2.75838,-4.048372,-2.666197,3.024049,1.344771,-0.143002,-0.255371,-0.083496,-1.087402
379,0.999724,-2.502797,11.666629,2.823076,-4.326342,-0.988836,3.095002,1.395972,-0.054596,-0.233398,-0.121338,-1.077148
380,1.060527,-2.90549,10.320274,3.035678,-4.683045,0.59764,3.109686,1.413541,0.045963,-0.224121,-0.15918,-1.069336
381,0.85377,-3.131213,9.077742,2.906256,-4.889362,2.029538,3.140073,1.430343,0.093983,-0.208496,-0.194824,-1.063721
382,0.786492,-3.430341,7.992037,2.901236,-5.094918,3.341546,3.09287,1.460588,0.159223,-0.190674,-0.232666,-1.057861
383,0.759517,-3.535851,7.006975,2.861956,-5.068985,4.494245,2.922327,1.505436,0.176952,-0.183594,-0.26001,-1.050293
384,0.872621,-3.249308,5.663422,2.749155,-4.472632,5.834232,2.683268,1.51713,0.197745,-0.161865,-0.293457,-1.046875
385,0.585415,-3.377446,4.209754,2.264841,-4.263899,7.330876,2.584451,1.506884,0.231088,-0.148682,-0.324951,-1.030273
386,0.378883,-3.288987,2.490636,1.685544,-3.685417,8.95257,2.445228,1.524161,0.249286,-0.133545,-0.345947,-1.027344
387,0.272245,-2.771587,0.441203,0.954961,-2.518801,10.645607,2.305919,1.463536,0.241554,-0.120117,-0.371094,-1.021973
388,0.087062,-2.262878,-1.248184,0.184697,-1.465817,11.934743,2.254693,1.359096,0.204972,-0.103027,-0.389648,-1.007813
389,-0.247007,-2.199159,-3.052614,-0.721716,-0.756247,13.435163,2.232344,1.194867,0.131587,-0.089844,-0.421143,-0.997803
390,-0.297605,-1.693031,-4.471527,-1.376899,0.314298,14.390214,2.233374,0.98794,0.011235,-0.084961,-0.440186,-0.986084
391,-0.258462,-0.706034,-5.111796,-1.803393,1.520903,14.409334,2.195414,0.7911,-0.059599,-0.075928,-0.463379,-0.978516
392,-0.353867,0.136046,-5.39185,-2.19404,2.403928,14.128002,2.091038,0.590643,-0.088855,-0.069092,-0.490723,-0.964111
393,-0.387404,0.260284,-5.803638,-2.432064,2.7654,14.322296,1.923812,0.4262,-0.070189,-0.068604,-0.503418,-0.950439
394,-0.467739,0.154131,-6.146948,-2.644672,2.893485,14.572942,1.697057,0.284809,-0.03127,-0.063721,-0.526611,-0.949707
395,-0.486533,0.16844,-6.136448,-2.68705,2.965188,14.493275,1.374562,0.188974,0.026887,-0.063477,-0.539307,-0.942383
396,-0.462907,0.118277,-6.351344,-2.754199,3.094342,14.650761,0.991083,0.114896,0.140937,-0.063232,-0.547607,-0.937744
397,-0.408491,0.074381,-6.52527,-2.773283,3.202133,14.793318,0.565222,0.078174,0.230649,-0.063232,-0.547607,-0.935547
398,-0.15003,0.385189,-6.743689,-2.669929,3.663289,14.822678,0.127816,0.033163,0.236147,-0.061279,-0.545654,-0.935547
399,0.114163,0.712761,-7.193985,-2.643372,4.238331,15.039886,-0.218013,-0.033278,0.26357,-0.06958,-0.541504,-0.93335
400,0.27099,0.669829,-7.786487,-2.700647,4.540584,15.578187,-0.450747,-0.164535,0.30438,-0.075928,-0.541504,-0.942383
401,0.30499,0.439931,-8.056814,-2.70783,4.478928,15.961297,-0.654681,-0.311771,0.309584,-0.073975,-0.535156,-0.944824
402,0.085754,0.134915,-7.971067,-2.789451,4.083804,16.066046,-0.830309,-0.466932,0.309069,-0.08252,-0.522705,-0.951904
403,0.03631,-0.388813,-7.647737,-2.577414,3.444232,16.147815,-1.062674,-0.601943,0.306883,-0.091064,-0.514404,-0.95459
404,-0.257892,-1.10669,-7.441351,-2.579982,2.605444,16.386811,-1.414487,-0.721776,0.273891,-0.104248,-0.491211,-0.964355
405,-0.256975,-1.484447,-7.626591,-2.483674,2.304617,16.809305,-1.750884,-0.866719,0.243907,-0.11084,-0.476563,-0.969238
406,-0.287314,-1.635445,-7.367804,-2.292203,1.947521,16.74033,-2.036958,-1.014847,0.271417,-0.11792,-0.451172,-0.983398
407,-0.187144,-1.95656,-6.802932,-1.837356,1.341271,16.518292,-2.400184,-1.150696,0.337923,-0.135254,-0.42627,-0.990967
408,-0.283892,-2.808562,-5.931468,-1.355951,0.085424,16.239343,-2.648753,-1.225243,0.465235,-0.150635,-0.398926,-1.003174
409,-0.402598,-3.549182,-4.890884,-0.873558,-1.148924,15.694302,-2.843993,-1.296422,0.552162,-0.16626,-0.363281,-1.015625
410,-0.387913,-4.186094,-3.977491,-0.334986,-2.183238,15.161754,-3.053267,-1.355566,0.584737,-0.181641,-0.327637,-1.027832
411,-0.155343,-5.133234,-2.938943,0.504488,-3.44066,14.599706,-3.192346,-1.453278,0.671459,-0.205566,-0.296143,-1.037842
412,0.151569,-5.883472,-1.469549,1.440395,-4.617771,13.472661,-3.288402,-1.584714,0.867925,-0.219238,-0.25415,-1.043701
413,0.546951,-6.647356,1.26002,2.658905,-6.11528,11.078627,-3.406659,-1.707843,1.195211,-0.243408,-0.210205,-1.054199
414,1.150323,-6.741278,4.98518,3.917807,-7.100148,7.393868,-3.401941,-1.748472,1.443313,-0.263428,-0.161865,-1.064697
415,1.898837,-5.346304,9.800203,4.777833,-6.788838,2.111952,-3.404696,-1.578477,1.597709,-0.279053,-0.121826,-1.068359
416,3.098958,-2.618742,14.87391,5.332424,-4.899838,-3.796964,-3.386351,-1.326868,1.534243,-0.292725,-0.086182,-1.071777
417,3.64824,0.157843,20.25789,4.956978,-2.980963,-9.941113,-3.250618,-1.181848,1.244096,-0.300293,-0.041992,-1.082031
418,3.935369,2.282421,24.952205,4.256873,-1.351667,-15.153337,-3.067507,-0.983004,0.79619,-0.311523,-0.008301,-1.092285
419,3.587825,3.607314,28.438753,3.08789,-0.277194,-18.909738,-2.816374,-0.653049,0.237833,-0.310303,0.01709,-1.104248
420,3.401846,4.137362,30.703285,2.339865,0.428908,-21.262606,-2.471757,-0.416448,-0.142492,-0.309082,0.044678,-1.111816
421,2.589132,4.108448,31.198442,1.271904,0.643181,-21.728702,-2.086054,-0.120809,-0.303323,-0.30957,0.063721,-1.128174
422,1.53899,4.123876,30.13166,0.109143,0.942587,-20.623615,-1.693497,0.350272,-0.342175,-0.303711,0.078613,-1.137451
423,0.934265,3.453422,28.795581,-0.234812,0.710293,-19.194364,-1.357678,0.624964,-0.307393,-0.289551,0.089355,-1.155762
424,-0.210022,1.853025,27.068958,-0.644851,-0.620299,-17.3054,-1.243881,0.934042,-0.247188,-0.275146,0.0979,-1.167236
425,-0.946044,0.690527,25.127366,-0.803785,-1.454209,-15.286811,-1.053405,0.951755,-0.17813,-0.254639,0.102539,-1.183105
426,-1.638047,0.22691,23.278534,-1.181143,-1.722698,-13.430686,-0.889666,0.939902,-0.111102,-0.23999,0.104736,-1.194336
427,-1.683952,0.607501,21.271362,-1.276862,-1.052662,-11.469523,-0.633573,0.913136,0.026674,-0.229736,0.109131,-1.205566
428,-1.716914,0.87446,19.670481,-1.311532,-0.585422,-9.899595,-0.410807,0.951949,0.180374,-0.215332,0.111572,-1.221436
429,-1.49278,1.074428,18.080059,-1.098069,-0.148978,-8.326811,-0.242048,0.844269,0.302351,-0.194824,0.122559,-1.226074
430,-1.050043,1.61174,16.452669,-0.840098,0.636284,-6.718458,-0.136431,0.757862,0.330608,-0.184326,0.120605,-1.239502
431,-0.552184,2.307416,15.011444,-0.612285,1.562913,-5.29208,-0.153312,0.735844,0.269509,-0.174072,0.122803,-1.246338
432,-0.454125,3.05896,13.9378,-0.790789,2.373039,-4.243222,-0.213154,0.56396,0.218647,-0.159668,0.129395,-1.250977
433,-0.197434,3.120926,13.135759,-0.585433,2.594092,-3.425703,-0.319019,0.357254,0.14932,-0.161865,0.129395,-1.250977
434,-0.295055,2.442489,12.193516,-0.464283,2.001267,-2.455712,-0.504315,0.20696,-0.012336,-0.153809,0.139893,-1.255859
435,-0.329675,2.009722,11.672785,-0.375696,1.658453,-1.913758,-0.62319,0.035354,-0.081722,-0.154053,0.148438,-1.258301
436,-0.412196,1.768342,11.363366,-0.408062,1.475036,-1.592583,-0.725632,-0.051249,-0.13876,-0.152344,0.156982,-1.258545
437,-0.282835,1.833876,11.415485,-0.348602,1.65668,-1.628016,-0.718519,-0.104494,-0.185715,-0.152588,0.165283,-1.254395
438,-0.100726,1.826181,11.416109,-0.213689,1.775379,-1.609866,-0.478864,-0.129866,-0.160963,-0.156738,0.169434,-1.254639
439,0.125351,1.726227,11.685167,0.017775,1.797862,-1.86233,-0.175014,-0.156243,-0.085786,-0.161133,0.173828,-1.261475
440,0.234648,1.305387,11.735745,0.259638,1.452254,-1.905262,-0.036502,-0.132991,-0.11337,-0.163086,0.171631,-1.254639
441,0.347055,1.280461,11.528639,0.353806,1.459189,-1.69449,0.076445,-0.089814,-0.148461,-0.158936,0.171631,-1.252441
442,0.544223,1.205816,11.205436,0.549373,1.44312,-1.364412,0.135033,-0.045034,-0.206244,-0.163086,0.171631,-1.259033
443,0.909527,1.094458,10.806817,0.917196,1.44833,-0.951764,0.218809,-0.038229,-0.202753,-0.163086,0.171631,-1.254639
444,0.680717,0.599253,10.519294,0.880713,0.873523,-0.672506,0.242992,-0.054915,-0.209014,-0.165039,0.165283,-1.258789
445,0.634327,0.331907,10.437324,0.935519,0.58055,-0.591061,0.19294,-0.061252,-0.223669,-0.168945,0.163086,-1.252197
446,0.478285,0.295228,10.24623,0.794221,0.471836,-0.40728,0.046625,-0.064737,-0.209271,-0.170898,0.152344,-1.249512
447,0.375482,0.050356,10.175253,0.779678,0.199248,-0.337766,-0.005147,-0.04409,-0.178864,-0.175293,0.160889,-1.247559
448,-0.030722,-0.176259,10.237393,0.482154,-0.157993,-0.41369,-0.07348,0.013496,-0.210677,-0.177246,0.156494,-1.249756
449,-0.248661,-0.05887,10.05016,0.229755,-0.12164,-0.237358,-0.048876,0.077744,-0.215596,-0.170898,0.156738,-1.249756
450,-0.320818,-0.070086,9.49519,0.14895,-0.155813,0.314266,0.010412,0.111127,-0.187638,-0.170898,0.152344,-1.24292
451,-0.36787,-0.00657,8.966308,0.068174,-0.11709,0.839857,0.095027,0.091327,-0.194915,-0.170898,0.156738,-1.240723
452,-0.456871,-0.192745,8.578252,0.040429,-0.332981,1.226666,0.153221,0.024739,-0.181337,-0.170654,0.148193,-1.244873
453,-0.344384,-0.531059,8.417468,0.259843,-0.626032,1.398715,0.197672,-0.049295,-0.113712,-0.176758,0.143799,-1.240234
454,-0.432457,-1.091538,8.783443,0.386874,-1.199489,1.041206,0.114356,-0.119807,-0.122644,-0.174805,0.143799,-1.23584
455,-0.373961,-0.959146,9.248,0.404424,-1.064722,0.577532,-0.065542,-0.140449,-0.173241,-0.180908,0.145996,-1.244873
456,-0.054121,-0.291566,9.561293,0.469228,-0.326439,0.263891,-0.13837,-0.137842,-0.127247,-0.185059,0.145752,-1.242676
457,0.161806,-0.004362,10.021433,0.57449,0.023573,-0.193545,-0.164513,-0.116334,-0.113878,-0.183105,0.147949,-1.240479
458,0.13218,0.206258,10.252755,0.468144,0.223503,-0.429863,-0.222988,-0.059289,-0.146149,-0.187256,0.150146,-1.240479
459,0.181516,0.282145,10.084877,0.470124,0.33123,-0.261364,-0.255543,-0.001855,-0.140462,-0.185547,0.158447,-1.238525
460,0.059554,0.350837,9.84903,0.314882,0.379644,-0.030415,-0.331981,0.044381,-0.19398,-0.193848,0.15625,-1.233887
461,-0.034032,0.307302,9.344778,0.214437,0.337105,0.471343,-0.402961,0.039489,-0.268447,-0.187744,0.164795,-1.247803
462,-0.0567,0.396816,8.868039,0.135754,0.441547,0.947626,-0.35771,0.004328,-0.309901,-0.187988,0.171143,-1.239014
463,-0.016772,0.539192,8.56839,0.105222,0.606215,1.249409,-0.193367,-0.056506,-0.237166,-0.194092,0.168945,-1.232178
464,-0.038621,0.025859,8.721303,0.248324,0.121684,1.095646,-0.046201,-0.167278,-0.132625,-0.196289,0.168945,-1.239014
465,-0.033473,-0.105627,9.194106,0.294918,-0.002285,0.622647,0.037257,-0.223932,-0.090653,-0.202393,0.168945,-1.236572
466,-0.076802,-0.254887,9.967314,0.30667,-0.161877,-0.152146,0.040656,-0.240353,-0.040887,-0.202393,0.166748,-1.23877
467,0.079984,0.21054,10.251231,0.289648,0.3175,-0.432005,0.065508,-0.186431,-0.039778,-0.208496,0.162354,-1.236572
468,0.173215,0.128773,10.694638,0.402332,0.261796,-0.873352,0.040454,-0.127221,-0.021667,-0.20459,0.166748,-1.236572
469,0.139396,0.092469,10.781706,0.377082,0.210966,-0.961656,-0.019176,-0.016016,-0.058712,-0.204346,0.1604,-1.245361
470,0.389466,0.486476,10.609293,0.479487,0.667675,-0.783054,-0.083466,0.069079,-0.065737,-0.210693,0.164551,-1.231934
471,0.388821,0.485573,10.118261,0.471776,0.671609,-0.291397,-0.089138,0.105179,-0.081663,-0.20874,0.168701,-1.239014
472,0.280093,0.465666,9.793344,0.375085,0.622596,0.031248,-0.059192,0.120163,-0.103284,-0.206543,0.164551,-1.240967
473,0.128514,0.459814,9.520689,0.235286,0.57056,0.300035,-0.032558,0.110346,-0.11013,-0.20874,0.166748,-1.23877
474,0.006102,0.246758,9.381413,0.192791,0.330432,0.435829,-0.004621,0.079747,-0.113107,-0.206299,0.1604,-1.243164
475,-0.28242,-0.199618,9.558825,0.075034,-0.183144,0.249656,-0.003593,0.051698,-0.119171,-0.204346,0.1604,-1.247559
476,-0.540003,-0.24135,9.652854,-0.148953,-0.304431,0.147669,-0.009925,0.050859,-0.134081,-0.204102,0.158203,-1.240723
477,-0.608253,-0.275296,9.76566,-0.19577,-0.356757,0.032694,-0.00315,0.055527,-0.097731,-0.210449,0.156006,-1.24292
478,-0.714149,-0.569695,10.014553,-0.190124,-0.664836,-0.219645,-0.038581,0.066337,-0.081577,-0.208252,0.154053,-1.24292
479,-0.637643,-0.672958,10.011435,-0.081505,-0.731159,-0.214628,-0.098382,0.079315,-0.113541,-0.208496,0.1604,-1.245361
480,-0.518654,-0.610992,9.917833,0.010246,-0.624136,-0.117874,-0.129937,0.069718,-0.154126,-0.206299,0.1604,-1.247559
481,-0.521115,-0.674802,9.950834,0.028,-0.671765,-0.151947,-0.150156,0.041031,-0.180646,-0.208252,0.158203,-1.245361
482,-0.509189,-0.425721,9.840926,-0.046563,-0.41971,-0.04155,-0.150321,0.020755,-0.206709,-0.210449,0.160156,-1.238525
483,-0.488871,0.124666,9.635082,-0.210409,0.11533,0.16739,-0.071761,-0.003712,-0.205508,-0.214844,0.164307,-1.247803
484,-0.421985,0.370886,9.550751,-0.229404,0.367507,0.255241,0.05742,-0.04875,-0.164188,-0.208496,0.1604,-1.247559
485,-0.483989,0.174468,9.624127,-0.228679,0.148166,0.178673,0.182333,-0.096555,-0.11871,-0.2146,0.160156,-1.247559
486,-0.520579,-0.050964,9.973169,-0.1877,-0.097918,-0.171942,0.245034,-0.117301,-0.103459,-0.216553,0.151611,-1.24292
487,-0.407694,-0.174334,10.292179,-0.035793,-0.207838,-0.486876,0.280742,-0.089173,-0.087541,-0.222656,0.149414,-1.251709
488,-0.539191,-0.471964,10.763407,-0.055076,-0.556877,-0.96002,0.208788,-0.034817,-0.058773,-0.218506,0.149658,-1.251709
489,-0.510296,-0.542876,10.760972,-0.000486,-0.631745,-0.955531,0.078249,0.072784,-0.072687,-0.218506,0.147461,-1.247314
490,-0.413927,-0.190997,10.349875,-0.017968,-0.268538,-0.543724,-0.051719,0.156334,-0.076398,-0.220459,0.149658,-1.249512
491,-0.368259,0.102339,9.682445,-0.072553,0.032581,0.12303,-0.108852,0.172169,-0.076202,-0.212402,0.153809,-1.249756
492,-0.420679,0.142309,9.253869,-0.137997,0.064376,0.549421,-0.095942,0.141422,-0.093429,-0.216309,0.147461,-1.247314
493,-0.408454,0.252718,9.090066,-0.158602,0.180396,0.713111,-0.057403,0.075371,-0.112801,-0.222656,0.153809,-1.256348
494,-0.430139,0.230675,9.238273,-0.165396,0.156403,0.56433,-0.006339,0.005887,-0.146768,-0.216309,0.145264,-1.251709
495,-0.494679,0.207219,9.484523,-0.212353,0.112072,0.316048,0.064001,-0.030302,-0.139726,-0.220459,0.149658,-1.253906
496,-0.509837,0.130751,9.71297,-0.197714,0.025472,0.087511,0.112284,-0.044604,-0.144428,-0.220459,0.145264,-1.249268
497,-0.494553,-0.051879,9.850981,-0.124722,-0.158893,-0.048767,0.158695,-0.035604,-0.147512,-0.220215,0.141113,-1.249268
498,-0.472601,-0.197807,9.898018,-0.057818,-0.30946,-0.093579,0.169306,-0.021076,-0.126465,-0.224365,0.138916,-1.251465
499,-0.52454,-0.438039,10.062341,-0.028149,-0.569736,-0.256688,0.119126,0.014787,-0.087225,-0.222168,0.134766,-1.246826
500,-0.50877,-0.470644,9.971616,-0.002694,-0.603784,-0.164733,0.018795,0.049646,-0.075617,-0.222412,0.141113,-1.24707
501,-0.550788,-0.217602,9.80101,-0.118632,-0.37123,0.001539,-0.078756,0.087061,-0.082526,-0.218018,0.136963,-1.246826
502,-0.533724,-0.112387,9.480045,-0.140581,-0.25459,0.321421,-0.14764,0.086889,-0.077618,-0.222412,0.143066,-1.251465
503,-0.536333,-0.144372,9.212628,-0.14118,-0.272765,0.588444,-0.147095,0.069659,-0.066312,-0.220215,0.143311,-1.251465
504,-0.486206,0.024914,8.995989,-0.150661,-0.087105,0.805215,-0.090649,0.013656,-0.044914,-0.222412,0.147461,-1.253906
505,-0.436327,0.150944,9.126954,-0.13888,0.052028,0.675267,-0.043202,-0.045642,-0.021692,-0.222412,0.141113,-1.251465
506,-0.416933,0.333032,9.196142,-0.177812,0.230139,0.605669,0.005916,-0.086744,-0.030463,-0.220459,0.145264,-1.24707
507,-0.305629,0.543472,9.358989,-0.1351,0.456616,0.445047,0.0673,-0.104492,-0.012929,-0.226563,0.143066,-1.24707
508,-0.438416,0.512339,9.542344,-0.254716,0.376569,0.257358,0.094321,-0.104258,-0.046211,-0.230713,0.140869,-1.256104
509,-0.381209,0.571716,9.642375,-0.219965,0.43637,0.158219,0.109308,-0.077561,-0.05412,-0.230469,0.136719,-1.251465
510,-0.387638,0.290765,9.822165,-0.142741,0.153712,-0.019186,0.067073,-0.043166,-0.057723,-0.230713,0.140869,-1.253662
511,-0.454303,0.257386,9.725399,-0.202023,0.096511,0.075855,0.009289,-0.010283,-0.070555,-0.226318,0.132568,-1.246826
512,-0.491694,0.21631,9.65609,-0.228922,0.045915,0.144486,-0.033047,0.014853,-0.04928,-0.230469,0.136719,-1.249023
513,-0.487383,0.262413,9.675116,-0.237279,0.094278,0.125114,-0.057164,0.030457,-0.062231,-0.228271,0.134521,-1.258057
514,-0.434306,0.17441,9.623276,-0.16251,0.029977,0.179454,-0.066568,0.028047,-0.034027,-0.236816,0.136719,-1.258057
515,-0.521987,0.01322,9.533921,-0.203516,-0.145093,0.267751,-0.058503,0.016194,-0.020833,-0.230469,0.132568,-1.258057
516,-0.504297,0.003503,9.664001,-0.181288,-0.146244,0.13834,-0.050237,-0.002411,-0.008679,-0.232666,0.136719,-1.260254
517,-0.558628,0.188637,9.834133,-0.283656,0.017652,-0.035005,-0.043646,-0.010575,-0.012633,-0.228516,0.143066,-1.258301
518,-0.597067,0.319631,9.959068,-0.356757,0.132843,-0.162119,-0.021176,-0.011753,-0.018671,-0.228271,0.132568,-1.255615
519,-0.62598,0.265626,9.988998,-0.370009,0.06987,-0.192347,0.031476,-0.016155,-0.014268,-0.226318,0.132568,-1.255615
520,-0.661513,0.183245,10.110267,-0.377319,-0.027406,-0.31379,0.082952,-0.013664,-0.001918,-0.226318,0.132568,-1.260254
521,-0.707392,-0.046769,10.227884,-0.35109,-0.271355,-0.43013,0.076884,-9.7e-05,0.002941,-0.228271,0.130371,-1.26001
522,-0.735974,-0.143502,10.292307,-0.346042,-0.380163,-0.494085,0.044686,0.03571,0.023728,-0.230225,0.128174,-1.26001
523,-0.753267,-0.282566,10.421777,-0.313496,-0.521531,-0.622369,-0.007502,0.072856,0.057906,-0.226074,0.132568,-1.262451
524,-0.731838,-0.222695,10.36814,-0.303209,-0.45435,-0.569274,-0.056702,0.128184,0.075981,-0.224121,0.134766,-1.26709
525,-0.635152,-0.014466,10.193913,-0.264522,-0.217821,-0.395252,-0.09209,0.161572,0.090557,-0.219971,0.134766,-1.264648
526,-0.457696,0.123912,9.896698,-0.131593,-0.024268,-0.094459,-0.062213,0.167777,0.11817,-0.219971,0.134766,-1.258057
527,-0.341341,0.065799,9.651997,0.00075,-0.039917,0.154516,-0.029888,0.149142,0.133457,-0.213623,0.126465,-1.264404
528,-0.178743,0.101472,9.496667,0.151672,0.043163,0.315106,0.020612,0.118664,0.151119,-0.21582,0.134766,-1.262451
529,-0.166433,0.240889,9.443515,0.12988,0.176368,0.367174,0.068441,0.07348,0.141635,-0.213867,0.132813,-1.255615
530,-0.090768,0.442088,9.521744,0.152677,0.384176,0.289223,0.064325,0.050194,0.119861,-0.213623,0.130615,-1.264648
531,-0.155174,0.308836,9.725828,0.143375,0.230364,0.084504,0.068663,0.042088,0.119133,-0.21167,0.130615,-1.262451
532,-0.264085,0.224277,9.813986,0.072804,0.111349,-0.006511,0.03363,0.051859,0.107107,-0.213867,0.132813,-1.260254
533,-0.237663,0.221434,9.841623,0.104412,0.115614,-0.033062,-0.034052,0.060598,0.081753,-0.213623,0.128418,-1.262207
534,-0.300512,0.190965,9.774847,0.054486,0.072094,0.031776,-0.064807,0.065647,0.06957,-0.213867,0.134766,-1.262451
535,-0.234907,0.154477,9.796442,0.132311,0.062826,0.013307,-0.073912,0.069085,0.084572,-0.209473,0.130615,-1.262451
536,-0.158705,0.020367,9.730866,0.245601,-0.036652,0.083674,-0.058442,0.058781,0.113052,-0.209717,0.132813,-1.262451
537,-0.060714,0.04002,9.723056,0.336017,0.01499,0.095179,-0.031251,0.053422,0.126408,-0.20752,0.132813,-1.264648
538,0.132147,0.027934,9.711225,0.526634,0.061376,0.115006,0.019498,0.046141,0.14097,-0.201416,0.13501,-1.264648
539,0.117344,0.046612,9.768074,0.513474,0.070461,0.057556,0.054572,0.037241,0.135641,-0.205566,0.13501,-1.264648
540,0.063911,0.315341,9.834363,0.388461,0.305462,-0.01452,0.030298,0.049335,0.088651,-0.20752,0.128662,-1.262207
541,-0.048567,0.447494,9.715511,0.240491,0.395958,0.097794,-0.013798,0.059807,0.064903,-0.203369,0.130859,-1.262451
542,-0.159128,0.529365,9.631135,0.110808,0.440594,0.176407,-0.00355,0.055736,0.069177,-0.198975,0.126709,-1.262207
543,-0.287516,0.493544,9.553814,-0.000779,0.367203,0.248861,-0.013376,0.036244,0.049095,-0.201172,0.128662,-1.262207
544,-0.334849,0.39672,9.487269,-0.018469,0.258108,0.314749,0.027965,-0.007641,0.053388,-0.201172,0.128662,-1.262207
545,-0.347065,0.187816,9.563451,0.035422,0.046059,0.241275,0.103498,-0.056836,0.082573,-0.200928,0.124512,-1.262207
546,-0.320089,-0.117275,9.737235,0.15804,-0.251617,0.07402,0.121492,-0.094902,0.10715,-0.200928,0.122314,-1.270996
547,-0.323654,-0.369324,9.849235,0.230087,-0.509728,-0.03291,0.113844,-0.122555,0.114027,-0.209229,0.120117,-1.26416
548,-0.195888,-0.299999,9.960628,0.326389,-0.420886,-0.140141,0.094108,-0.119091,0.104771,-0.207031,0.120117,-1.268799
549,-0.049059,-0.115645,10.063734,0.404586,-0.214025,-0.241417,0.061582,-0.100906,0.069881,-0.211182,0.11792,-1.26416
550,0.093379,0.27757,9.981415,0.40715,0.194196,-0.162828,0.054403,-0.079279,0.040747,-0.211182,0.115967,-1.26416
551,0.030574,0.641027,9.869112,0.224587,0.512393,-0.061432,0.042619,-0.054352,0.020228,-0.208984,0.115967,-1.259521
552,0.050035,0.890441,9.645951,0.15324,0.750957,0.155962,0.033283,-0.032341,-0.007356,-0.213135,0.11377,-1.266357
553,0.034436,0.814178,9.485574,0.152985,0.670153,0.317021,0.017167,-0.03508,-0.032594,-0.211182,0.11377,-1.266357
554,-0.060205,0.602845,9.400308,0.121102,0.436868,0.403792,-0.000247,-0.056258,-0.055553,-0.208984,0.111572,-1.268555
555,-0.055313,0.51933,9.370561,0.143431,0.355966,0.435434,-0.014216,-0.088816,-0.060603,-0.213135,0.11377,-1.261719
556,-0.098102,0.49557,9.514278,0.105074,0.314907,0.290793,-0.023236,-0.123837,-0.067131,-0.217285,0.109375,-1.263916
557,-0.055743,0.367928,9.680467,0.17727,0.200666,0.128773,-0.026621,-0.145228,-0.063905,-0.217285,0.111572,-1.266113
558,-0.030433,0.105806,9.744077,0.269468,-0.046953,0.071829,-0.002091,-0.152302,-0.037395,-0.219238,0.111572,-1.263916
559,-0.034748,-0.006358,10.118382,0.299022,-0.167681,-0.299947,0.021119,-0.119943,-0.022494,-0.223389,0.107178,-1.268311
560,0.059683,0.152138,10.363308,0.339468,-0.000254,-0.546348,0.050153,-0.066036,-0.003532,-0.218994,0.103027,-1.270508
561,0.037397,0.144827,10.435162,0.319833,-0.022128,-0.618621,0.020921,-0.002094,-0.018517,-0.219238,0.105225,-1.266113
562,0.021296,0.304941,10.231247,0.251316,0.127227,-0.419248,-0.018965,0.061395,-0.043676,-0.225098,0.10083,-1.268066
563,0.028734,0.366838,10.048125,0.239412,0.195285,-0.237425,-0.056532,0.095377,-0.0504,-0.220947,0.09668,-1.265869
564,0.093674,0.284075,9.715353,0.321877,0.1493,0.09921,-0.090766,0.09386,-0.076095,-0.223145,0.103027,-1.270508
565,0.032404,0.051241,9.578432,0.3333,-0.079759,0.240197,-0.11076,0.053882,-0.098857,-0.21875,0.09668,-1.268066
566,0.056275,0.034786,9.396169,0.353615,-0.077241,0.42326,-0.104894,-0.00254,-0.12076,-0.216797,0.101074,-1.272705
567,0.048261,0.017026,9.365383,0.34379,-0.092253,0.453932,-0.056522,-0.078859,-0.108706,-0.225342,0.103027,-1.265869
568,-0.053702,0.032544,9.51868,0.235939,-0.113382,0.297401,0.010836,-0.134777,-0.108514,-0.227295,0.098633,-1.268066
569,-0.11141,0.045106,9.776264,0.172181,-0.133161,0.038109,0.085819,-0.159649,-0.102609,-0.223145,0.098877,-1.268066
570,-0.188084,0.234333,10.120198,0.040799,0.002374,-0.311886,0.127896,-0.139889,-0.088932,-0.231201,0.092285,-1.272461
571,-0.247345,0.272523,10.488299,-0.02511,-0.002733,-0.682036,0.113032,-0.093449,-0.066282,-0.227051,0.094482,-1.267822
572,-0.419214,0.156359,10.637926,-0.153752,-0.179033,-0.832028,0.039642,-0.009059,-0.067946,-0.227051,0.092285,-1.267822
573,-0.36545,0.147996,10.48274,-0.101243,-0.170345,-0.675593,-0.013013,0.075474,-0.068652,-0.224854,0.092529,-1.272461
574,-0.263314,0.033899,10.165512,0.028972,-0.238077,-0.353461,-0.063162,0.121333,-0.08205,-0.224854,0.090332,-1.263428
575,-0.219137,-0.109014,9.78232,0.110053,-0.346395,0.034059,-0.077292,0.101285,-0.067806,-0.226807,0.081787,-1.269775
576,-0.143676,-0.196084,9.525298,0.204632,-0.396308,0.294733,-0.057296,0.052324,-0.011607,-0.226807,0.088135,-1.276611
577,-0.269104,-0.229465,9.426869,0.09169,-0.460123,0.390861,-0.0507,-0.005181,0.020561,-0.229004,0.090332,-1.272217
578,-0.328062,-0.036511,9.519581,-0.022832,-0.293384,0.291932,-0.043955,-0.040415,0.056189,-0.230957,0.088135,-1.272217
579,-0.361076,0.29992,9.536164,-0.15942,0.018065,0.266326,-0.0407,-0.049623,0.081391,-0.233398,0.096436,-1.272461
580,-0.362724,0.386436,9.490093,-0.194877,0.099574,0.310326,-0.0196,-0.064557,0.113253,-0.233154,0.090088,-1.272217
581,-0.485964,0.250061,9.430779,-0.280742,-0.069429,0.370513,-0.009713,-0.065741,0.109069,-0.229004,0.088135,-1.267822
582,-0.450698,0.19577,9.283282,-0.242148,-0.112475,0.520245,0.005094,-0.079727,0.0913,-0.235352,0.090088,-1.267822
583,-0.478677,0.118109,9.38241,-0.25155,-0.202373,0.422881,0.010468,-0.101453,0.069354,-0.239014,0.081543,-1.271973
584,-0.441646,0.091218,9.478941,-0.215905,-0.225059,0.328152,0.010153,-0.116666,0.065149,-0.235107,0.08374,-1.272217
585,-0.371089,0.04299,9.492296,-0.145917,-0.256325,0.317624,-0.003568,-0.138278,0.068683,-0.241211,0.08374,-1.269775
586,-0.367027,0.040497,9.439289,-0.157039,-0.262286,0.371128,-0.014161,-0.165064,0.082259,-0.241211,0.08374,-1.267578
587,-0.282049,0.04846,9.44861,-0.09599,-0.234479,0.363143,-0.035272,-0.198729,0.08291,-0.245605,0.090088,-1.274658
588,-0.199461,0.151933,9.388615,-0.070998,-0.11409,0.421689,-0.052611,-0.231871,0.092797,-0.243408,0.085693,-1.272217
589,-0.121776,0.289367,9.495963,-0.060876,0.031411,0.311785,-0.006597,-0.261866,0.112802,-0.247559,0.085693,-1.272217
590,-0.090927,0.268632,9.77469,-0.046543,0.002987,0.033999,0.041116,-0.278417,0.119347,-0.255615,0.081299,-1.271973
591,-0.121943,0.136826,10.137269,-0.056604,-0.156984,-0.324862,0.079788,-0.267282,0.097752,-0.255859,0.085693,-1.276611
592,-0.00952,0.273263,10.293348,-0.012946,-0.014674,-0.48427,0.079457,-0.237833,0.076088,-0.257813,0.083496,-1.272217
593,0.048772,0.226229,10.198219,0.036118,-0.05378,-0.38795,0.038069,-0.196685,0.056672,-0.261963,0.079102,-1.271973
594,0.19811,0.073263,10.019711,0.205687,-0.158914,-0.205877,0.012862,-0.193119,0.062846,-0.259766,0.081299,-1.271973
595,0.137432,-0.077949,9.829842,0.17467,-0.325043,-0.011495,0.00798,-0.208373,0.066675,-0.266113,0.081299,-1.274414
596,0.242841,0.031745,9.717822,0.220157,-0.193512,0.096202,-0.005238,-0.224484,0.071113,-0.268311,0.083252,-1.278809
597,0.279485,0.180491,9.719998,0.186287,-0.049043,0.088908,-0.013023,-0.241917,0.079425,-0.27417,0.07251,-1.276367
598,0.213099,0.166053,9.762226,0.103457,-0.092186,0.04771,-0.028277,-0.246018,0.078589,-0.27417,0.07251,-1.269531
599,0.254376,0.395628,9.79448,0.046664,0.130827,0.007906,-0.028538,-0.241092,0.058346,-0.276367,0.078857,-1.27417
600,0.281968,0.410201,9.904391,0.04375,0.142867,-0.103076,-0.026908,-0.227353,0.04325,-0.284668,0.078857,-1.278809
601,0.292354,0.324724,10.133299,0.05632,0.050866,-0.329742,-0.023211,-0.188897,0.053305,-0.282471,0.074707,-1.27417
602,0.357341,0.418752,10.039988,0.072329,0.158566,-0.240869,-0.024602,-0.142798,0.043277,-0.284668,0.074463,-1.278564
603,0.40677,0.446129,9.973929,0.098546,0.198225,-0.177044,-0.014342,-0.100755,0.040858,-0.286865,0.078857,-1.27417
604,0.421449,0.420494,9.939323,0.11193,0.176585,-0.142255,-0.018474,-0.063304,0.032673,-0.284424,0.074707,-1.280762
605,0.54956,0.318543,9.700622,0.262294,0.127306,0.095664,-0.039959,-0.051233,0.03058,-0.292725,0.070313,-1.278564
606,0.449764,0.08374,9.352559,0.232269,-0.115083,0.452536,-0.080156,-0.224512,-0.009452,-0.292969,0.078613,-1.278809
607,0.518829,0.532347,9.570404,0.142875,0.322302,0.219934,0.018842,0.033403,0.023198,-0.288574,0.07251,-1.278564
608,0.404968,0.223845,9.764734,0.126609,-0.018117,0.037833,0.037466,-0.060444,0.111967,-0.290771,0.072266,-1.278564
609,0.252696,-0.009187,9.933156,0.04607,-0.298631,-0.119091,-0.003129,-0.062728,0.09678,-0.294922,0.072266,-1.278564
610,0.222569,0.016197,10.097789,-0.000529,-0.2914,-0.283363,-0.049038,-0.045267,0.103392,-0.294678,0.070313,-1.280762
611,0.235551,0.086709,10.047664,-0.012736,-0.216472,-0.235772,-0.043678,0.026153,0.107137,-0.288574,0.074463,-1.283203
612,0.233892,0.105475,9.979039,-0.017303,-0.191584,-0.167796,-0.076855,0.063399,0.064666,-0.288818,0.07666,-1.2854
613,0.316284,0.257453,9.728996,0.020527,-0.005459,0.075172,-0.071286,0.067145,0.027732,-0.286621,0.07666,-1.289795
614,0.298494,0.332354,9.550275,-0.013623,0.071523,0.252248,-0.049111,0.053955,0.02792,-0.290771,0.07666,-1.2854
615,0.314218,0.274062,9.401391,0.025268,0.029462,0.402136,-0.028805,0.043254,0.017937,-0.290771,0.078613,-1.287598
616,0.253455,0.322996,9.391332,-0.045961,0.056717,0.412669,0.006156,0.018065,0.003686,-0.286621,0.07251,-1.289795
617,0.244042,0.125338,9.578521,0.00465,-0.142816,0.231303,0.01098,-0.00581,0.005431,-0.286377,0.070313,-1.289795
618,0.161465,0.139785,9.71,-0.081931,-0.163234,0.102056,0.005979,-0.011247,0.012644,-0.288818,0.07666,-1.294434
619,0.231161,0.245715,9.960101,-0.05636,-0.051361,-0.152834,-0.020968,-0.005338,0.041877,-0.286621,0.074463,-1.294189
620,0.152183,0.271732,10.202224,-0.145397,-0.0582,-0.393087,-0.066186,0.027984,0.049411,-0.284424,0.074707,-1.294189
621,0.936059,1.157459,10.385003,0.317747,1.03597,-0.622348,-0.157315,0.185483,-0.201271,-0.282227,0.07251,-1.298828
622,0.256682,0.299993,10.383715,-0.038443,0.020649,-0.578438,-0.037712,0.17462,0.004224,-0.275879,0.068359,-1.300781
623,0.250205,-0.116889,10.257338,0.107662,-0.367856,-0.441205,0.026019,0.20318,0.003898,-0.273926,0.070557,-1.303223
624,0.500735,0.235887,10.06369,0.252975,0.058984,-0.262863,-0.083323,0.18111,-0.00528,-0.276123,0.07251,-1.301025
625,0.550471,0.131991,9.693595,0.350804,-0.001958,0.108918,-0.066838,0.150064,0.001749,-0.27417,0.078857,-1.305664
626,0.455892,0.289712,9.776011,0.220743,0.120566,0.024997,-0.008745,0.12251,0.008982,-0.272217,0.081055,-1.299072
627,0.196251,-0.047499,9.717214,0.09192,-0.276445,0.097743,-0.028536,0.110136,0.023687,-0.271973,0.068359,-1.296387
628,0.10926,-0.232562,9.671736,0.076674,-0.474156,0.149469,-0.033609,0.094836,0.058694,-0.280273,0.070313,-1.303223
629,0.130387,-0.010909,9.626644,0.031525,-0.252349,0.188514,-0.042324,0.053061,0.074997,-0.27002,0.074707,-1.307617
630,0.221898,0.152673,9.668563,0.068634,-0.065699,0.14084,-0.045649,0.058558,0.094573,-0.267822,0.074951,-1.312256
631,0.161206,0.083236,9.771842,0.035692,-0.149959,0.040377,-0.042639,0.060524,0.060534,-0.267822,0.074951,-1.314453
632,0.263818,0.182362,9.947089,0.103538,-0.024951,-0.139,-0.030191,0.0655,0.036795,-0.265869,0.076904,-1.312256
633,0.361568,0.330101,10.088618,0.153439,0.146629,-0.285573,-0.050932,0.101913,-0.01514,-0.268066,0.081299,-1.310059
634,0.544316,0.603478,10.230918,0.247435,0.466051,-0.436884,-0.0405,0.138011,-0.065189,-0.259766,0.081299,-1.316895
635,0.61688,0.646328,10.044739,0.313728,0.538335,-0.252442,-0.007609,0.087001,-0.09753,-0.267822,0.076904,-1.314453
636,0.685369,0.52088,9.662626,0.427216,0.449907,0.131651,0.034967,0.038889,-0.034466,-0.263672,0.074951,-1.314453
637,0.363004,0.228237,9.581721,0.21997,0.060948,0.224095,0.178117,0.002802,0.051383,-0.265869,0.074951,-1.31665
638,0.230339,0.060285,9.58108,0.153249,-0.163038,0.231264,0.271824,-0.018623,0.140496,-0.261475,0.068604,-1.314209
639,0.132644,-0.042565,9.684124,0.098191,-0.321408,0.133396,0.24927,-0.032002,0.196075,-0.259277,0.068604,-1.318604
640,0.184306,-0.003559,9.851672,0.136171,-0.292256,-0.035432,0.096012,-0.020019,0.195252,-0.263428,0.062256,-1.311768
641,0.220166,0.200302,9.927503,0.105173,-0.094703,-0.118268,-0.038096,0.051975,0.161452,-0.265381,0.064209,-1.318604
642,0.283534,0.62216,10.113839,0.029823,0.321682,-0.319087,-0.045491,0.063575,0.131211,-0.263428,0.066406,-1.323242
643,0.289819,0.86062,10.071783,-0.038298,0.550275,-0.284897,0.041789,0.048258,0.08718,-0.265625,0.066406,-1.318604
644,0.264406,0.628426,10.060228,0.018272,0.314008,-0.265709,0.124634,0.013866,0.072472,-0.263184,0.062256,-1.320801
645,0.244528,0.234201,9.729047,0.131076,-0.064979,0.07885,0.090543,-0.039011,0.070284,-0.265381,0.060059,-1.322998
646,0.266942,0.105658,9.549979,0.193208,-0.184343,0.262127,0.104141,-0.050621,0.076925,-0.265381,0.062256,-1.318604
647,0.225139,0.224107,9.690498,0.113049,-0.103241,0.118193,0.07537,-0.022147,0.069365,-0.265381,0.062256,-1.318604
648,0.171653,0.291073,9.812189,0.040511,-0.0721,-0.00497,0.074609,-0.004208,0.073822,-0.263184,0.062256,-1.320801
649,0.057003,0.34283,10.002807,-0.082366,-0.076742,-0.195522,0.053851,0.038463,0.01243,-0.259033,0.055908,-1.324951
650,0.138101,0.339441,10.006332,0.001898,-0.056082,-0.200196,0.003455,0.089644,-0.14102,-0.267334,0.055908,-1.324951
651,0.120209,0.484105,10.059056,-0.052378,0.076555,-0.2583,-0.058264,0.14446,-0.243553,-0.258789,0.051758,-1.331543
652,0.102177,0.644156,10.043692,-0.110305,0.236887,-0.248763,-0.182631,0.162646,-0.278263,-0.263184,0.055908,-1.324951
653,0.002513,0.540957,9.774475,-0.161107,0.138594,0.025564,-0.19184,0.161162,-0.297284,-0.259033,0.055908,-1.32959
654,-0.009923,0.542343,9.729529,-0.164177,0.154933,0.070666,-0.121313,0.123108,-0.336766,-0.254883,0.055908,-1.32959
655,-0.200392,0.639706,9.496791,-0.369998,0.206363,0.301698,-0.09279,0.057673,-0.401432,-0.259033,0.058105,-1.331787
656,-0.072521,0.52119,9.360284,-0.20615,0.144167,0.440999,-0.000334,0.064883,-0.392833,-0.259033,0.058105,-1.331787
657,0.184953,0.405629,9.464365,0.084644,0.107713,0.338819,0.086353,0.102385,-0.362626,-0.256836,0.053955,-1.331787
658,0.152771,0.570287,9.284578,0.019206,0.252411,0.512804,0.143069,0.171087,-0.317134,-0.254639,0.051758,-1.331543
659,-0.082913,0.906883,9.048591,-0.282267,0.501819,0.736636,0.157679,0.328395,-0.186027,-0.250244,0.04541,-1.331299
660,-0.476932,0.958306,9.418482,-0.634546,0.397314,0.363195,0.457754,0.251534,-0.222561,-0.241699,0.035156,-1.335449
661,-0.258507,0.940627,9.199049,-0.38295,0.416782,0.579409,0.572951,0.316795,-0.258407,-0.239258,0.024658,-1.3396
662,-0.151654,0.85877,9.495205,-0.205756,0.318133,0.285065,0.480825,0.343337,-0.205896,-0.237061,0.018311,-1.337158
663,0.117995,0.718347,9.688417,0.136048,0.230772,0.100658,0.195429,0.274641,-0.095325,-0.232666,0.009766,-1.345947
664,0.088144,0.511935,9.589486,0.187583,0.031857,0.211028,-0.136541,0.189573,0.078897,-0.230713,0.01416,-1.346191
665,-0.043869,0.660646,9.226244,0.013296,0.176044,0.564406,-0.347097,0.117509,0.203573,-0.226563,0.020508,-1.343994
666,-0.153524,0.576099,8.993883,-0.074506,0.104499,0.799983,-0.359369,0.102021,0.265504,-0.224854,0.026855,-1.346436
667,-0.081225,0.310086,9.046017,0.076932,-0.105749,0.761939,-0.17562,0.13272,0.218594,-0.222412,0.020508,-1.346191
668,0.006739,0.075392,9.18126,0.247548,-0.300905,0.639389,0.066339,0.201881,0.148949,-0.218262,0.018555,-1.350586
669,0.178402,-0.771398,9.049601,0.691625,-1.057929,0.816884,0.269656,0.339328,0.013019,-0.211914,0.010254,-1.352539
670,0.284637,-0.209209,9.435121,0.685677,-0.526268,0.410624,0.417656,0.603194,-0.145469,-0.200928,-0.002441,-1.356689
671,-0.180433,0.681894,10.395538,0.072244,0.122026,-0.605776,0.208627,0.489396,0.040798,-0.194824,-0.004395,-1.358887
672,-0.129529,0.408131,9.472614,0.209139,-0.084898,0.333096,0.121654,0.433493,0.032534,-0.186279,-0.006348,-1.361084
673,-0.308198,0.691948,9.73358,0.009427,0.122349,0.050458,0.040744,0.472553,0.003536,-0.181885,-0.016846,-1.367432
674,-0.273759,0.597818,9.604654,0.096254,0.05929,0.18622,-0.075087,0.259917,0.009655,-0.173584,-0.016602,-1.369629
675,-0.378624,1.374875,8.881123,-0.26467,0.813908,0.858613,-0.200916,0.220509,0.226849,-0.175781,-0.012451,-1.369873
676,-0.327135,0.082287,9.044353,0.198747,-0.387166,0.772518,-0.177626,0.200647,0.268971,-0.165283,-0.016602,-1.383057
677,-0.286829,-0.329194,9.56225,0.404685,-0.770082,0.280088,-0.134961,0.133118,0.286422,-0.165283,-0.016602,-1.376465
678,-0.491513,0.231915,9.609112,0.044703,-0.289101,0.192666,-0.171609,0.090493,0.257393,-0.167236,-0.020752,-1.383057
679,-0.559342,0.570374,9.779969,-0.114549,0.022441,0.000842,-0.247351,0.089248,0.313607,-0.163086,-0.022949,-1.391846
680,-0.600858,0.638749,9.705101,-0.181464,0.09959,0.070249,-0.289638,0.103055,0.385325,-0.158936,-0.022705,-1.394043
681,-0.842325,0.751903,9.437802,-0.465109,0.160729,0.320334,-0.296732,0.087216,0.46138,-0.154541,-0.024902,-1.394043
682,-0.76785,0.715125,9.417592,-0.389759,0.169294,0.346355,-0.230134,0.027855,0.493647,-0.154785,-0.022705,-1.394043
683,-0.828236,0.811096,9.005428,-0.510814,0.261195,0.751097,-0.168159,0.000238,0.529714,-0.154541,-0.020508,-1.418701
684,-0.632788,0.479141,9.020263,-0.221972,0.019568,0.760313,-0.126485,0.005769,0.57772,-0.156494,-0.0271,-1.407471
685,-0.633849,0.411039,8.868003,-0.213297,-0.03489,0.915189,-0.163346,0.036446,0.637799,-0.152344,-0.029053,-1.402832
686,-0.809767,0.337944,9.082369,-0.341007,-0.161613,0.695838,-0.144785,0.086191,0.670856,-0.143799,-0.037354,-1.406982
687,-0.689795,0.116199,9.442187,-0.122416,-0.325307,0.351008,-0.118953,0.18478,0.627315,-0.141357,-0.045898,-1.413574
688,-0.866123,0.026948,9.727936,-0.21579,-0.465777,0.059738,-0.073775,0.358651,0.506222,-0.133057,-0.047852,-1.417969
689,-0.891553,0.198025,9.763639,-0.263307,-0.302567,0.014643,-0.039233,0.462832,0.363465,-0.122314,-0.058105,-1.419678
690,-0.922901,0.109808,9.913494,-0.209473,-0.384236,-0.134648,-0.016842,0.443338,0.186232,-0.12207,-0.064453,-1.433105
691,-0.821839,0.281254,9.944417,-0.142342,-0.174239,-0.167054,-0.044665,0.326552,0.013505,-0.109375,-0.076904,-1.434814
692,-0.751179,0.27196,9.721068,-0.06865,-0.14,0.060096,-0.092353,0.202495,-0.08925,-0.109131,-0.083252,-1.443604
693,-0.558251,0.197582,9.837646,0.159235,-0.126611,-0.040665,-0.071889,0.158494,-0.198919,-0.104492,-0.095947,-1.443115
694,-0.543396,0.255664,9.920254,0.169043,-0.055041,-0.124135,-0.103936,0.157816,-0.242568,-0.096191,-0.100098,-1.445313
695,-0.502365,0.496237,10.128881,0.15094,0.196391,-0.337753,-0.066305,0.22874,-0.249068,-0.095947,-0.108398,-1.449463
696,-0.505168,0.50141,10.267882,0.179521,0.211258,-0.476097,-0.016176,0.263857,-0.17715,-0.087158,-0.123047,-1.453613
697,-0.620441,0.53156,10.342639,0.089944,0.20763,-0.559701,-0.035049,0.222693,-0.132694,-0.078613,-0.131348,-1.459961
698,-0.561088,0.421437,10.421542,0.209539,0.133672,-0.629495,-0.00177,0.175635,-0.162979,-0.078125,-0.144043,-1.464111
699,-0.541865,0.294726,10.484601,0.290393,0.023509,-0.686001,0.039319,0.073415,-0.19253,-0.075439,-0.160889,-1.468018
700,-0.735226,0.06698,10.311021,0.178508,-0.260287,-0.51991,0.027555,-0.031819,-0.287166,-0.077393,-0.169434,-1.463135
701,-0.692708,0.143546,10.108554,0.16757,-0.177212,-0.317654,0.03,-0.097918,-0.414031,-0.071045,-0.173584,-1.471924
702,-0.845626,0.085078,10.085378,0.02896,-0.290619,-0.304221,0.005607,-0.185001,-0.496816,-0.070557,-0.19043,-1.473633
703,-0.832571,0.161309,10.010287,-0.01468,-0.219886,-0.231037,0.005467,-0.281199,-0.664067,-0.076416,-0.197021,-1.473633
704,-0.826755,0.366755,10.299171,-0.090058,-0.036243,-0.525657,0.011379,-0.43617,-0.79788,-0.076172,-0.20752,-1.473145
705,-1.037327,1.876057,14.717489,-0.530743,1.257173,-4.99733,-0.156817,-0.920908,-0.783449,-0.097168,-0.201416,-1.475586
706,0.92027,1.10245,12.658542,1.272953,1.237396,-2.802594,-1.420192,-1.11295,-0.482508,-0.105713,-0.191162,-1.478271
707,-0.609592,-0.132901,10.521863,-0.009679,-0.319645,-0.722778,-0.751334,-0.187729,-0.380783,-0.110107,-0.180664,-1.480957
708,-0.398126,0.025142,9.788985,0.068961,-0.05117,0.015965,-0.488669,-0.136105,-0.203357,-0.112549,-0.172119,-1.476563
709,-0.250994,-0.260646,9.524925,0.252246,-0.232551,0.287087,-0.662303,-0.203201,-0.110756,-0.11499,-0.159424,-1.479248
710,-0.163749,-0.125144,9.804658,0.260546,-0.017056,0.009366,-0.754161,-0.26381,-0.069211,-0.115234,-0.153076,-1.477295
711,-0.187144,-0.290807,9.864649,0.240971,-0.121655,-0.054302,-0.74454,-0.321957,-0.04611,-0.121582,-0.144775,-1.473145
712,-0.193752,-0.320826,9.847888,0.192959,-0.100765,-0.039907,-0.609623,-0.296291,-0.08561,-0.126221,-0.13208,-1.473389
713,-0.104338,-0.348432,9.759872,0.241764,-0.056857,0.049214,-0.565777,-0.208791,-0.103831,-0.124268,-0.125732,-1.471436
714,-0.167852,-0.636374,9.671757,0.233635,-0.303121,0.12614,-0.669013,-0.117907,-0.166527,-0.128906,-0.113281,-1.471924
715,-0.140021,-0.677042,9.654946,0.239585,-0.274278,0.139896,-0.741759,-0.090882,-0.280372,-0.12915,-0.106934,-1.476563
716,-0.146038,-0.461032,9.625048,0.132773,-0.00034,0.176447,-0.919704,-0.079397,-0.308279,-0.131592,-0.092041,-1.477051
717,-0.160467,-0.388048,9.835159,0.061289,0.161665,-0.02987,-1.017979,-0.084534,-0.249325,-0.138184,-0.075195,-1.477539
718,-0.154082,-0.498366,9.852605,0.061712,0.149936,-0.052343,-0.998298,-0.075118,-0.172618,-0.138672,-0.064697,-1.480225
719,-0.120244,-0.569387,9.889896,0.077652,0.18103,-0.092321,-0.922734,-0.094679,-0.067039,-0.136475,-0.0625,-1.482422
720,-0.228691,-0.886132,10.518339,0.023334,-0.04087,-0.745267,-0.52668,-0.357384,-0.071678,-0.147461,-0.045898,-1.478516
721,-0.006651,-0.647659,9.932004,0.123775,0.224573,-0.137105,-0.165177,-0.282261,-0.054188,-0.145508,-0.045898,-1.478516
722,0.042353,-0.728157,9.730604,0.169923,0.14582,0.057356,-0.036974,-0.188743,-0.041313,-0.149658,-0.045898,-1.47168
723,-0.070427,-0.905546,9.791133,0.098134,-0.05699,-0.019829,0.014349,-0.126349,-0.043358,-0.151611,-0.043701,-1.474121
724,-0.028365,-0.922509,9.839985,0.130528,-0.063698,-0.069419,0.01271,-0.117681,-0.070087,-0.153809,-0.045898,-1.474121
725,-0.031561,-0.886305,9.801887,0.104445,-0.039911,-0.028604,0.000524,-0.127871,-0.092228,-0.157715,-0.050293,-1.476074
726,-0.055187,-0.85089,9.790046,0.056412,-0.01895,-0.01424,-0.034868,-0.152574,-0.110997,-0.161865,-0.050293,-1.47168
727,0.018623,-0.903737,9.796587,0.12607,-0.050999,-0.024573,-0.023148,-0.141364,-0.110109,-0.159912,-0.046143,-1.469482
728,0.029777,-0.890564,9.7752,0.12426,-0.043542,-0.002158,0.06003,-0.027006,-0.103938,-0.163818,-0.05249,-1.478271
729,-0.05864,-0.827209,9.742135,0.021061,-0.020825,0.035365,0.078019,0.004518,-0.10801,-0.163818,-0.05249,-1.469238
730,-0.043855,-0.787743,9.843491,0.023871,0.019087,-0.062324,0.093255,0.013931,-0.09095,-0.161621,-0.056641,-1.47583
731,-0.098208,-0.773259,9.731835,-0.027745,-0.001972,0.049727,0.08769,0.020942,-0.079727,-0.163574,-0.060791,-1.47583
732,-0.062804,-0.813179,9.765808,0.019933,-0.036898,0.012971,0.082753,0.016247,-0.078104,-0.161621,-0.058838,-1.47583
733,-0.07441,-0.798159,9.824769,0.005993,-0.03019,-0.044682,0.066851,0.01677,-0.038149,-0.163818,-0.058838,-1.473633
734,-0.044611,-0.812143,9.762056,0.041538,-0.047951,0.017011,0.067644,0.006242,-0.020876,-0.163574,-0.062988,-1.466797
735,0.261963,-0.910643,9.48522,0.369944,-0.085939,0.287823,0.133775,-0.003636,0.058968,-0.16333,-0.067139,-1.475586
736,0.105591,-0.673319,9.724852,0.151789,0.094406,0.065623,0.227335,-0.033583,0.206173,-0.163574,-0.065186,-1.473389
737,0.017213,-0.860868,10.024915,0.120671,-0.11005,-0.24781,0.170303,-0.034054,0.283017,-0.161377,-0.071533,-1.46875
738,0.079437,-0.748967,9.778383,0.154349,-0.01943,0.006576,0.145488,-0.02818,0.359437,-0.15918,-0.073486,-1.477539
739,-0.017572,-0.789963,9.770066,0.077268,-0.103253,0.011571,0.14075,-0.033463,0.413606,-0.161133,-0.073486,-1.475342
740,-0.060491,-0.694323,9.864039,0.009616,-0.033631,-0.07588,0.123839,-0.028298,0.423767,-0.167236,-0.077881,-1.473145
741,0.052702,-0.667177,9.800887,0.113681,0.008966,-0.010361,0.122453,-0.015169,0.401213,-0.169434,-0.077881,-1.473145
742,-0.120469,-0.619278,9.858272,-0.062242,-0.008044,-0.065551,0.111925,-0.002507,0.350717,-0.169434,-0.077881,-1.470703
743,-0.071313,-0.765194,9.758272,0.0357,-0.147876,0.025383,0.076381,0.000899,0.341692,-0.169189,-0.080078,-1.466309
744,0.127293,-0.627826,9.733515,0.185538,0.032656,0.059935,0.118457,-0.004522,0.252377,-0.167236,-0.080078,-1.468506
745,-0.016152,-0.479882,9.760351,0.006628,0.115571,0.041219,0.133219,0.003084,0.235175,-0.166992,-0.090576,-1.474854
746,0.108028,-0.750613,9.714563,0.216697,-0.118133,0.071697,0.15,0.004653,0.234591,-0.168945,-0.090576,-1.477051
747,-0.024186,-0.709207,9.852646,0.082583,-0.128347,-0.0643,0.138342,0.005232,0.313202,-0.166992,-0.090576,-1.474854
748,0.035981,-0.499642,9.546586,0.081674,0.057924,0.253493,0.144772,0.015002,0.223215,-0.170898,-0.092773,-1.470215
749,-0.116605,-0.508753,9.516603,-0.050403,-0.023964,0.28195,0.310565,0.014939,0.215331,-0.168701,-0.096924,-1.472412
750,-0.242909,-0.350884,9.783664,-0.211701,0.063618,0.022222,0.38396,0.018847,0.07567,-0.17041,-0.109619,-1.47876
751,-0.065622,-0.428813,9.722237,-0.005403,0.010436,0.080789,0.342133,0.013719,0.025481,-0.164063,-0.111572,-1.474121
752,-0.048156,-0.478083,9.547676,0.042263,-0.076771,0.253339,0.476087,0.010952,0.004393,-0.163818,-0.124268,-1.473877
753,-0.055484,-0.46538,9.504408,0.048085,-0.118589,0.297605,0.586372,0.00289,0.00421,-0.169678,-0.137207,-1.473389
754,-0.118616,-0.177686,9.875664,-0.087571,0.084092,-0.064522,0.685274,0.012055,-0.022791,-0.169434,-0.143311,-1.47998
755,-0.337055,0.056614,8.901825,-0.344949,0.13801,0.912082,0.869231,0.00209,-0.220439,-0.162598,-0.164551,-1.477051
756,0.299189,0.21835,12.112324,0.219085,0.513382,-2.292436,0.067841,0.008784,-0.071488,-0.166748,-0.162354,-1.479248
757,-0.031987,-0.118878,9.802803,0.016141,0.041979,0.009214,-0.005524,0.016699,-0.084955,-0.168945,-0.162354,-1.477051
758,0.012531,-0.108312,9.839505,0.055246,0.065963,-0.027045,-0.008007,0.012315,-0.077459,-0.162598,-0.162354,-1.481445
759,0.033394,-0.234604,9.785739,0.115871,-0.048538,0.024885,-0.012073,0.010797,-0.080141,-0.166748,-0.162354,-1.477051
760,0.044416,-0.228134,9.817227,0.124065,-0.039153,-0.006429,-0.011174,0.009272,-0.013965,-0.168701,-0.164551,-1.470215
761,0.02055,-0.174526,9.812576,0.083891,0.003271,-0.001103,-0.018373,0.010947,0.004427,-0.164551,-0.164551,-1.477051
762,0.004315,-0.142565,9.772302,0.058084,0.027419,0.039556,-0.016483,0.012856,0.008572,-0.166748,-0.164551,-1.477051
763,-0.023595,-0.160209,9.842925,0.037363,0.002625,-0.031499,-0.016993,0.011574,0.004758,-0.168701,-0.164551,-1.477051
764,-0.014612,-0.173416,9.785082,0.050007,-0.008028,0.026189,-0.019079,0.012315,0.00457,-0.1604,-0.164551,-1.474609
765,-0.023607,-0.153816,9.820687,0.035008,0.008066,-0.009167,-0.017077,0.011219,0.006421,-0.164551,-0.164551,-1.472412
766,-0.000461,-0.149527,9.772199,0.055448,0.018759,0.03952,-0.019701,0.014038,0.003049,-0.164551,-0.164551,-1.477051
767,0.010118,-0.143762,9.803702,0.063564,0.028094,0.008172,-0.016827,0.012287,0.001422,-0.166748,-0.1604,-1.479248
768,-0.025114,-0.149185,9.798425,0.032033,0.011359,0.013153,-0.018405,0.014309,0.005046,-0.166992,-0.158203,-1.477295
769,-0.026411,-0.151085,9.798393,0.031338,0.009186,0.013149,-0.020379,0.012047,0.002562,-0.166748,-0.166748,-1.474609
770,-0.013482,-0.13555,9.807736,0.038498,0.028325,0.004122,-0.019703,0.01404,0.003043,-0.166748,-0.166748,-1.474609
771,-0.009279,-0.168752,9.794211,0.053131,-0.0019,0.017163,-0.019083,0.012317,0.00456,-0.160645,-0.160156,-1.477051
772,-0.032581,-0.166785,9.82045,0.0304,-0.007158,-0.009183,-0.018999,0.012674,0.002893,-0.164795,-0.162354,-1.479248
773,0.000137,-0.165037,9.825691,0.060606,0.005219,-0.014202,-0.020466,0.011693,0.004221,-0.166748,-0.1604,-1.468262
774,0.004358,-0.198188,9.812147,0.075306,-0.024998,-0.001141,-0.017366,0.014371,-0.001769,-0.162598,-0.162354,-1.481445
775,-0.014374,-0.176046,9.794077,0.050483,-0.01058,0.017154,-0.016239,0.013926,0.003562,-0.166748,-0.164551,-1.474854
776,0.030267,-0.166663,9.830893,0.089553,0.013239,-0.019249,-0.020354,0.008692,0.001921,-0.162598,-0.162354,-1.477051
777,-0.004701,-0.172107,9.825569,0.057949,-0.003489,-0.014218,-0.015535,0.01256,0.003413,-0.166748,-0.162354,-1.474854
778,0.00425,-0.185125,9.767714,0.070645,-0.013965,0.043483,-0.019707,0.014043,0.003033,-0.168945,-0.162354,-1.477051
779,-0.002584,-0.155731,9.781216,0.054619,0.011899,0.030391,-0.018918,0.013035,0.001219,-0.166748,-0.162354,-1.477051
780,0.005559,-0.160054,9.834897,0.063777,0.011267,-0.023301,-0.017622,0.013302,0.00322,-0.170654,-0.166748,-1.476807
781,-0.005265,-0.159272,9.781158,0.053296,0.007564,0.030379,-0.018243,0.015027,0.001701,-0.166748,-0.1604,-1.477051
782,-0.00903,-0.171044,9.803265,0.053663,-0.004486,0.008074,-0.017709,0.012945,0.004882,-0.162598,-0.162354,-1.477051
783,-0.030026,-0.159147,9.807345,0.029847,8.3e-05,0.004051,-0.021177,0.013062,0.004353,-0.166748,-0.1604,-1.477051
784,-0.031314,-0.161223,9.807307,0.029218,-0.002087,0.004049,-0.021178,0.013063,0.004351,-0.166748,-0.1604,-1.477051
785,-0.015964,-0.135705,9.794594,0.035317,0.026913,0.017241,-0.019092,0.012321,0.00454,-0.168701,-0.162354,-1.481445
786,-0.047948,-0.182487,9.797776,0.020102,-0.027702,0.013154,-0.018215,0.011672,0.001063,-0.166748,-0.1604,-1.472656
787,-0.020782,-0.149492,9.816663,0.034978,0.012663,-0.005065,-0.021093,0.013423,0.002682,-0.164795,-0.160156,-1.477051
788,-0.022098,-0.151391,9.816631,0.034349,0.010491,-0.00507,-0.017626,0.013305,0.00321,-0.166992,-0.158203,-1.479492
789,-0.01532,-0.174503,9.780888,0.047997,-0.009772,0.030354,-0.021065,0.010066,0.002045,-0.166748,-0.164551,-1.474854
790,-0.029364,-0.175243,9.860804,0.03498,-0.013709,-0.049646,-0.016779,0.016016,0.000366,-0.164551,-0.162354,-1.481445
791,0.007719,-0.153284,9.821905,0.063225,0.018484,-0.010195,-0.019657,0.017767,0.001984,-0.162598,-0.166504,-1.476807
792,-0.019745,-0.180025,9.78078,0.046043,-0.01627,0.030353,-0.01901,0.012682,0.002866,-0.168945,-0.1604,-1.474854
793,-0.009306,-0.174468,9.812351,0.054107,-0.007124,-0.001067,-0.018421,0.014314,0.005016,-0.168945,-0.162354,-1.470215
794,0.001193,-0.168889,9.843929,0.062238,0.002012,-0.032493,-0.018306,0.011316,0.002716,-0.162598,-0.160156,-1.477051
795,0.004823,-0.150628,9.799681,0.059592,0.019729,0.012049,-0.019804,0.013691,0.004673,-0.166748,-0.164551,-1.479248
796,-0.010584,-0.16994,9.790141,0.051177,-0.003688,0.0212,-0.018394,0.010957,0.004377,-0.160645,-0.162354,-1.470215
797,0.022046,-0.168095,9.79551,0.081383,0.008646,0.016052,-0.018249,0.015036,0.001682,-0.171143,-0.15625,-1.481689
798,-0.001542,-0.166236,9.821697,0.058602,0.003253,-0.010241,-0.019718,0.014052,0.003005,-0.166748,-0.162354,-1.474854
799,0.002034,-0.147969,9.777467,0.055972,0.021014,0.034284,-0.019013,0.012686,0.002856,-0.164795,-0.160156,-1.477051
800,0.010131,-0.152476,9.831165,0.065058,0.02014,-0.019429,-0.017015,0.011582,0.004713,-0.168701,-0.164551,-1.474854
801,0.003303,-0.123157,9.844788,0.049023,0.045936,-0.032643,-0.021806,0.014798,0.002807,-0.164795,-0.162354,-1.474854
802,0.015329,-0.177419,9.795359,0.078097,-0.002207,0.016022,-0.016958,0.015302,0.003682,-0.164795,-0.162354,-1.472656
803,0.005963,-0.158059,9.83108,0.06302,0.013601,-0.019454,-0.019015,0.012688,0.00285,-0.164795,-0.160156,-1.477051
804,0.007175,-0.149824,9.808963,0.061435,0.02142,0.002793,-0.019016,0.012688,0.002849,-0.162598,-0.160156,-1.479248
805,0.008309,-0.14161,9.78685,0.059779,0.029244,0.025036,-0.019634,0.014418,0.001331,-0.168945,-0.162354,-1.474854
806,-0.009555,-0.1709,9.799345,0.052316,-0.004153,0.011988,-0.016313,0.010216,0.004558,-0.164795,-0.162354,-1.479248
807,-0.013877,-0.131369,9.790913,0.035332,0.031644,0.020998,-0.020428,0.015424,0.003139,-0.168701,-0.164551,-1.474854
808,-0.000906,-0.115826,9.800459,0.042493,0.0507,0.011767,-0.017784,0.009231,0.005876,-0.162598,-0.162354,-1.477051
809,-0.032901,-0.16267,9.803357,0.02716,-0.003933,0.007964,-0.020927,0.01416,-0.000681,-0.168701,-0.164551,-1.474854
810,-0.000371,-0.161055,9.808788,0.057439,0.008377,0.002749,-0.019813,0.013696,0.004652,-0.164795,-0.158203,-1.477295
811,-0.006672,-0.18316,9.852901,0.058619,-0.01386,-0.041734,-0.017638,0.013314,0.003183,-0.166748,-0.1604,-1.474854
812,-0.020277,-0.140789,9.790771,0.032046,0.020801,0.020957,-0.019725,0.014059,0.002985,-0.162598,-0.164551,-1.479248
813,-0.012345,-0.145581,9.844475,0.041008,0.01976,-0.032767,-0.019288,0.011604,0.007827,-0.164551,-0.162354,-1.481445
814,-0.019794,-0.185822,9.799058,0.046984,-0.021527,0.011984,-0.017142,0.01458,0.006997,-0.168945,-0.1604,-1.479248
815,-0.024215,-0.146461,9.790679,0.030013,0.01429,0.020939,-0.023373,0.013458,0.005767,-0.166748,-0.164551,-1.477051
816,-0.035976,-0.13767,9.848496,0.015921,0.019955,-0.036803,-0.019379,0.011241,0.009486,-0.164795,-0.160156,-1.474854
817,-0.026633,-0.150426,9.790613,0.028682,0.009951,0.02093,-0.018932,0.013059,0.001168,-0.168945,-0.162354,-1.479248
818,-0.030421,-0.162383,9.812637,0.028985,-0.002279,-0.001298,-0.01773,0.012955,0.004837,-0.164795,-0.158203,-1.477295
819,-0.009474,-0.167813,9.786434,0.050472,-0.001124,0.02494,-0.018932,0.013061,0.001165,-0.162598,-0.160156,-1.472656
820,-0.002178,-0.121024,9.809788,0.042301,0.045834,0.00235,-0.017372,0.014411,-0.001818,-0.170898,-0.164551,-1.474854
821,-0.006094,-0.132914,9.831816,0.042521,0.033578,-0.01988,-0.017597,0.014242,-0.010627,-0.166748,-0.1604,-1.477051
822,0.083537,0.397186,9.790271,-0.04393,0.563168,0.030302,-0.014717,0.010975,-0.168122,-0.166748,-0.162354,-1.477051
823,0.139082,-0.11425,9.885605,0.173526,0.098121,-0.072546,-0.023145,0.014785,-0.48209,-0.1604,-0.164551,-1.479248
824,-0.057174,-0.177363,9.726997,0.006637,-0.027413,0.083946,-0.008603,0.004692,-0.39111,-0.162598,-0.166504,-1.474609
825,0.161663,-0.240551,9.830506,0.233487,-0.017935,-0.019301,-0.017723,0.01318,-0.168616,-0.164551,-0.170898,-1.474609
826,-0.14615,-0.471499,9.825961,0.012767,-0.333476,-0.020003,-0.022861,0.01619,-0.125096,-0.162598,-0.162354,-1.474854
827,-0.129989,-0.314382,9.820428,-0.021139,-0.179231,-0.011974,-0.013979,0.013007,-0.09448,-0.158447,-0.162354,-1.472656
828,-0.091457,-0.160044,9.788821,-0.032748,-0.021592,0.022209,-0.013918,0.007832,-0.121822,-0.166504,-0.170898,-1.476807
829,-0.273798,-0.051144,9.847855,-0.240664,0.026738,-0.036129,-0.025537,0.006421,-0.153878,-0.168701,-0.166748,-1.474609
830,-0.252653,-0.188371,9.814647,-0.179093,-0.097166,-0.004904,-0.021113,0.015083,-0.186659,-0.162598,-0.164551,-1.481445
831,-0.322426,-0.147733,9.77319,-0.258801,-0.080037,0.036817,-0.016962,0.006322,-0.238749,-0.162598,-0.166504,-1.474609
832,-0.183437,0.036558,9.84802,-0.182496,0.13962,-0.034428,-0.023889,0.021448,-0.244105,-0.162354,-0.168701,-1.470215
833,0.038214,0.171016,9.77287,-0.010743,0.33393,0.043958,-0.017033,0.022972,-0.161892,-0.162354,-0.172852,-1.474365
834,0.065707,0.154255,9.822522,0.021295,0.325928,-0.005834,0.00275,0.006875,-0.13548,-0.162354,-0.170898,-1.472168
835,0.175992,0.982095,9.869771,-0.119875,1.149153,-0.039873,-0.030316,0.015973,-0.026463,-0.168701,-0.170898,-1.472412
836,-0.02027,0.579213,9.770948,-0.187768,0.705355,0.05182,-0.026022,0.016797,0.213764,-0.1604,-0.170654,-1.465576
837,0.029767,0.49489,9.846849,-0.115559,0.642364,-0.025008,-0.03996,0.031175,0.328473,-0.162354,-0.170898,-1.461182
838,0.239967,-0.483343,9.84639,0.38166,-0.225311,-0.038514,-0.001037,0.013205,0.360925,-0.166504,-0.173096,-1.460938
839,0.231805,-1.232979,9.794523,0.60464,-0.940271,0.001625,-0.052015,0.003927,0.239818,-0.166748,-0.164551,-1.456787
840,0.202131,-2.0063,9.865433,0.816767,-1.678185,-0.082233,-0.072355,0.022885,0.197901,-0.168701,-0.166748,-1.456787
841,-0.095543,-0.611771,9.783607,0.101938,-0.441951,0.020004,-0.041937,0.009961,0.010811,-0.164795,-0.164551,-1.447754
842,-0.037205,-0.290909,9.725739,0.056461,-0.117556,0.083401,-0.049711,0.004682,-0.000288,-0.166748,-0.168701,-1.452148
843,-0.12323,-0.391714,9.77862,0.004979,-0.238288,0.028352,-0.010657,0.008425,0.027965,-0.171143,-0.158203,-1.447998
844,-0.031931,-0.291133,9.890983,0.060589,-0.112856,-0.081802,-0.017792,0.013392,0.05583,-0.166748,-0.168701,-1.449951
845,0.047813,-0.173216,9.740257,0.099296,0.023216,0.071306,-0.058123,0.015477,0.102173,-0.168701,-0.166748,-1.45459
846,0.022696,-0.05334,9.795924,0.037307,0.132529,0.01756,-0.028056,0.009572,0.013006,-0.166748,-0.164551,-1.447754
847,0.053086,-0.245323,9.845871,0.125408,-0.038852,-0.035507,-0.025285,0.009677,-0.025114,-0.170898,-0.164551,-1.452393
848,0.031291,-0.182996,9.819953,0.084546,0.013989,-0.008647,-0.034588,0.009512,-0.021433,-0.162598,-0.162354,-1.450195
849,0.036612,-0.400669,9.828121,0.156176,-0.189465,-0.0206,-0.040587,0.005754,-0.026684,-0.164795,-0.158203,-1.457031
850,-0.022726,-0.233127,9.848221,0.046189,-0.04631,-0.038102,-0.046059,0.008579,-0.055129,-0.171143,-0.1604,-1.457031
851,-0.080675,-0.073064,9.756805,-0.059799,0.088774,0.055862,-0.050541,0.014401,-0.024901,-0.162598,-0.164551,-1.458984
852,0.026015,0.034912,9.767786,0.007664,0.227082,0.047447,-0.035573,0.018949,0.008331,-0.166992,-0.1604,-1.457031
853,0.004681,-0.305104,9.905396,0.092866,-0.096998,-0.096498,-0.060675,0.024373,0.121049,-0.169189,-0.156006,-1.457031
854,-0.023919,-0.100518,9.811935,0.001702,0.090617,0.000627,-0.056098,0.016701,0.127273,-0.164795,-0.160156,-1.459229
855,0.01594,-0.070033,9.751801,0.029296,0.133574,0.06158,-0.039456,0.012244,0.041418,-0.166748,-0.162354,-1.456787
856,-0.024895,-0.448034,9.922813,0.108455,-0.232218,-0.116959,-0.047869,0.020646,0.066217,-0.158691,-0.160156,-1.457031
857,-0.012137,-0.13919,9.829511,0.023557,0.067136,-0.017559,-0.06914,0.02591,0.082955,-0.166992,-0.158203,-1.459229
858,0.003851,-0.124661,9.705746,0.033971,0.088438,0.106602,-0.069218,0.024907,0.096743,-0.162842,-0.158203,-1.454834
859,0.061429,-0.152836,9.782928,0.097624,0.084245,0.029223,-0.019705,0.022887,0.038035,-0.164795,-0.156006,-1.463867
860,0.038367,-0.24402,9.846517,0.10793,-0.007932,-0.036333,0.000151,0.068432,0.106515,-0.166992,-0.156006,-1.459229
861,-0.04831,-0.206035,9.7734,0.019705,-0.0013,0.037017,0.008365,0.068454,0.109624,-0.166992,-0.156006,-1.46167
862,-0.039483,-0.108351,9.821486,0.003963,0.094387,-0.009021,0.01222,0.083382,0.114933,-0.166992,-0.154053,-1.459473
863,-0.047564,0.013626,9.85179,-0.035831,0.207061,-0.036985,0.01212,0.066768,0.092321,-0.160645,-0.160156,-1.459229
864,0.045485,-0.055125,9.831214,0.07915,0.171249,-0.016976,-0.018818,0.053406,0.045835,-0.162842,-0.156006,-1.457031
865,-0.057286,-0.338253,9.738841,0.079165,-0.131514,0.069015,0.02137,0.105873,0.148838,-0.160645,-0.162354,-1.458984
866,-0.084443,-0.399225,9.870218,0.083564,-0.195471,-0.063674,0.010983,0.103563,0.134261,-0.158691,-0.157959,-1.459229
867,-0.149824,-0.295479,9.830681,-0.004388,-0.118751,-0.022857,-0.009765,0.066,0.058499,-0.158691,-0.156006,-1.461426
868,-0.198987,-0.333245,9.890175,-0.033429,-0.166211,-0.083648,-0.052248,0.07194,0.054052,-0.158936,-0.151611,-1.46167
869,-0.027359,-0.342781,9.883886,0.1349,-0.114123,-0.075599,-0.076523,0.047061,0.002936,-0.158691,-0.156006,-1.457031
870,-0.192537,-0.153523,9.766824,-0.079679,0.016468,0.043099,-0.084931,0.098315,0.014976,-0.154785,-0.151611,-1.46167
871,0.019936,-0.205677,9.828484,0.145195,0.045227,-0.016791,-0.061141,0.108135,0.061289,-0.154541,-0.153809,-1.463867
872,-0.321838,0.027068,9.763062,-0.245137,0.160173,0.048676,-0.061933,0.136558,0.164717,-0.156738,-0.153809,-1.463867
873,-0.177187,-0.191764,9.789785,-0.026867,0.007275,0.019462,-0.036925,0.122347,0.211733,-0.152588,-0.149414,-1.466309
874,-0.163902,0.001087,9.832927,-0.067129,0.200176,-0.019338,-0.043638,0.129072,0.250192,-0.148438,-0.151611,-1.46167
875,-0.042433,-0.095669,9.916668,0.089783,0.158397,-0.102861,-0.074295,0.126719,0.310522,-0.152832,-0.147461,-1.464111
876,-0.0755,-0.1171,9.852442,0.071952,0.13477,-0.039554,-0.097879,0.087733,0.226797,-0.146484,-0.145264,-1.461914
877,-0.214142,-0.181953,10.000012,-0.031077,0.044874,-0.191122,-0.173817,0.104279,0.282559,-0.144775,-0.138916,-1.45752
878,-0.213257,-0.197959,10.031449,-0.023087,0.053358,-0.222809,-0.285008,0.08871,0.262572,-0.144531,-0.140869,-1.461914
879,-0.20295,-0.462414,9.919513,0.075795,-0.164408,-0.118016,-0.343776,0.139784,0.284107,-0.142822,-0.134521,-1.466797
880,0.049985,-0.865439,9.801372,0.468648,-0.431086,-0.006312,-0.128475,0.413769,0.162294,-0.134521,-0.132324,-1.459961
881,-0.319325,-0.422101,10.301603,0.031727,-0.10165,-0.501928,0.069505,0.77086,-0.016371,-0.122314,-0.12793,-1.466797
882,-0.392226,0.33058,11.851988,-0.176851,0.662763,-2.030513,0.070761,0.825142,-0.07358,-0.114014,-0.127686,-1.462402
883,-0.012133,1.038842,14.263065,0.06369,1.584305,-4.39999,-0.155854,0.196838,0.080897,-0.116211,-0.119385,-1.462646
884,-0.214939,0.790036,13.856841,-0.08535,1.306236,-4.00643,-0.623288,-0.368464,0.313691,-0.121094,-0.098389,-1.456543
885,-0.22762,0.592025,13.355107,-0.13878,1.15467,-3.506741,-0.792362,-0.599211,0.31725,-0.144775,-0.066895,-1.44873
886,-0.378426,0.863534,13.067768,-0.507044,1.397925,-3.204315,-0.749962,-0.837783,0.290369,-0.158203,-0.041748,-1.438232
887,-0.359214,0.798051,12.774317,-0.617448,1.375607,-2.902391,-0.843271,-0.988711,0.380655,-0.179932,-0.008301,-1.419189
888,-0.078953,0.070136,12.084576,-0.253698,0.803496,-2.242839,-0.883381,-1.111866,0.49382,-0.19751,0.025146,-1.404541
889,0.268311,-0.624905,11.715042,0.165765,0.313043,-1.916624,-0.988436,-1.104263,0.593925,-0.213135,0.054443,-1.385498
890,0.198303,-1.018965,11.418537,0.098923,-0.025607,-1.652373,-1.190125,-1.001189,0.665987,-0.239258,0.092285,-1.371094
891,0.530611,-1.132165,11.082553,0.326916,0.06105,-1.335118,-1.238963,-0.745451,0.616596,-0.246582,0.12793,-1.347412
892,0.701205,-0.972211,12.017913,0.265169,0.453057,-2.253385,-1.007335,-0.36158,0.598633,-0.251465,0.155518,-1.337158
893,0.79811,-0.931467,13.644876,0.17131,0.764623,-3.864764,-0.56438,-0.068087,0.563428,-0.252197,0.174316,-1.31543
894,0.821207,-0.80293,15.238835,0.021786,1.088842,-5.43051,-0.025827,0.099751,0.547097,-0.252686,0.191406,-1.300293
895,0.76821,-0.837385,17.121693,-0.108603,1.206783,-7.303832,0.35088,0.171634,0.538556,-0.253174,0.204102,-1.289551
896,0.704426,-1.183736,18.928681,-0.08947,0.973376,-9.140835,0.562283,0.103075,0.43552,-0.255615,0.2146,-1.271729
897,0.809841,-1.334446,19.848391,0.062977,0.848522,-10.078758,0.716369,-0.092222,0.257107,-0.268311,0.2229,-1.249756
898,0.700034,-1.188234,19.804592,-0.07014,0.776274,-10.024497,0.798172,-0.328973,0.068189,-0.279053,0.226807,-1.231934
899,0.666703,-1.017561,19.407319,-0.160021,0.707958,-9.619099,0.781829,-0.525574,-0.070043,-0.287354,0.230957,-1.209717
900,0.63397,-1.096567,18.313573,-0.135783,0.369711,-8.540335,0.73383,-0.665239,-0.103894,-0.302246,0.237061,-1.189697
901,0.69968,-1.17516,16.991265,-0.010782,0.071437,-7.233299,0.839168,-0.663281,-0.118807,-0.316895,0.239014,-1.171875
902,0.722981,-1.476014,15.973648,0.164655,-0.417666,-6.238939,0.910862,-0.573644,-0.068867,-0.324951,0.234619,-1.153809
903,0.668987,-1.531068,15.501863,0.160089,-0.682485,-5.763112,1.034993,-0.414862,-0.073314,-0.329346,0.234619,-1.142578
904,0.494857,-1.4947,15.257481,0.022604,-0.910339,-5.498663,1.213237,-0.300734,-0.039554,-0.335205,0.223877,-1.124268
905,0.458299,-1.513713,14.887278,0.066924,-1.149954,-5.113849,1.454785,-0.227047,0.027031,-0.343262,0.210938,-1.11499
906,0.247752,-1.282366,14.771577,-0.145675,-1.260001,-4.961973,1.77921,-0.253469,0.063166,-0.348877,0.194092,-1.103271
907,0.100074,-1.394709,14.361414,-0.139664,-1.684424,-4.517059,1.976143,-0.378215,0.0894,-0.354492,0.172852,-1.095703
908,0.151214,-2.318184,14.17543,0.351163,-2.780391,-4.275567,1.927132,-0.533633,-0.00728,-0.362305,0.155762,-1.081787
909,0.09238,-2.667823,13.53846,0.497677,-3.35909,-3.56185,1.828955,-0.768103,-0.156072,-0.374023,0.134521,-1.067627
910,-0.129791,-1.714971,12.358996,-0.047607,-2.743626,-2.359729,1.741731,-0.997313,-0.293295,-0.385986,0.113037,-1.055908
911,-0.361016,-1.079746,10.595273,-0.461295,-2.305677,-0.580737,1.627455,-1.144127,-0.285988,-0.402344,0.102295,-1.048828
912,-0.401449,-0.652062,8.888415,-0.61702,-1.913195,1.120929,1.584992,-1.161409,-0.205339,-0.414063,0.081055,-1.034668
913,-0.352224,-0.660324,7.186035,-0.49951,-1.813377,2.837035,1.568233,-1.117951,-0.09397,-0.43042,0.070313,-1.029785
914,-0.149328,-0.724658,5.771143,-0.218575,-1.687817,4.248879,1.658705,-1.003022,-0.034365,-0.42749,0.042725,-1.015625
915,0.049663,-0.792582,5.054377,0.029754,-1.645035,4.968149,1.728281,-0.847411,0.005928,-0.443604,0.023438,-1.008301
916,0.244412,-0.926448,4.580415,0.293607,-1.686513,5.457573,1.815185,-0.759932,0.008052,-0.453369,0.002197,-1.000732
917,0.332556,-0.756957,4.037566,0.345205,-1.464811,5.976009,1.901211,-0.71104,-0.034991,-0.458984,-0.012695,-0.989258
918,0.327052,-0.660263,3.478027,0.342619,-1.32006,6.529515,1.872948,-0.691204,-0.057963,-0.470703,-0.03833,-0.986084
919,0.451749,-1.062575,2.942059,0.659179,-1.551524,7.139337,1.81141,-0.700788,-0.17874,-0.472412,-0.057373,-0.976563
920,0.542494,-1.217305,2.196377,0.852263,-1.493766,7.904197,1.65332,-0.759341,-0.341567,-0.47998,-0.074219,-0.973877
921,0.528904,-0.301745,1.469317,0.510454,-0.511544,8.395867,1.444752,-0.803056,-0.449982,-0.48999,-0.093506,-0.964111
922,0.26174,1.009744,-0.123317,-0.159678,1.01916,9.614957,1.050278,-0.893456,-0.360452,-0.489502,-0.108154,-0.957031
923,0.308664,1.606742,-2.469571,-0.186537,2.321352,11.643567,0.700086,-0.80248,-0.213254,-0.508057,-0.112793,-0.947998
924,0.414604,2.027321,-4.13033,-0.121905,3.297216,13.046098,0.516335,-0.589479,-0.088288,-0.507813,-0.119141,-0.945557
925,0.571459,2.432202,-5.650027,-0.013859,4.245294,14.300687,0.532679,-0.350759,0.00541,-0.511719,-0.125488,-0.938477
926,0.578048,2.183259,-6.507919,0.153719,4.354795,15.14802,0.56097,-0.032176,0.066836,-0.511719,-0.129639,-0.938477
927,0.702204,1.689667,-6.731341,0.457092,4.075252,15.45558,0.581516,0.292726,0.067636,-0.499023,-0.140137,-0.937988
928,0.695729,1.305363,-6.038245,0.517676,3.515274,14.913972,0.485848,0.54382,0.056839,-0.499023,-0.137939,-0.944824
929,0.716791,0.879237,-5.272491,0.618945,2.888871,14.324584,0.215318,0.702723,0.071864,-0.494873,-0.137939,-0.949219
930,0.694389,0.144602,-4.538005,0.81944,1.978234,13.876132,-0.132003,0.766891,0.050583,-0.48877,-0.135742,-0.95166
931,0.579994,-0.533676,-4.190977,0.946122,1.208969,13.791208,-0.442115,0.777378,0.002509,-0.478516,-0.12915,-0.954102
932,0.313679,-0.65812,-3.929794,0.722279,0.881974,13.643493,-0.773493,0.783026,-0.038294,-0.474609,-0.118652,-0.965576
933,0.019367,-0.707073,-4.037931,0.464172,0.721211,13.821345,-1.177267,0.801896,-0.005797,-0.464355,-0.112061,-0.977051
934,-0.135427,-1.074284,-4.329406,0.471562,0.373363,14.23467,-1.471786,0.886746,0.011262,-0.454834,-0.088623,-0.97998
935,-0.127387,-1.390735,-4.460165,0.600315,0.056648,14.447246,-1.725235,1.020275,-0.017384,-0.444824,-0.07373,-0.991699
936,-0.322014,-0.951983,-4.298742,0.226853,0.229714,14.215426,-1.895881,1.194991,-0.073034,-0.426758,-0.054443,-1.003418
937,-0.493041,-0.665073,-3.985666,-0.072253,0.238579,13.875685,-2.036888,1.424759,-0.044649,-0.414795,-0.031006,-1.013184
938,-0.577729,-0.983829,-3.124541,-0.067209,-0.377942,13.116694,-2.023603,1.663888,-0.073208,-0.398926,-0.011719,-1.024902
939,-0.649496,-1.631773,-1.06877,0.068021,-1.496167,11.221028,-1.944158,1.852493,-0.081447,-0.378662,0.007568,-1.04126
940,-0.735063,-2.184904,1.18426,0.185729,-2.474995,9.066929,-1.935505,1.900814,-0.088201,-0.356689,0.0354,-1.053223
941,-0.910841,-2.898263,3.336728,0.324565,-3.509604,6.99498,-2.046689,1.86061,-0.122923,-0.334473,0.056885,-1.060791
942,-0.874202,-3.659298,4.956371,0.702436,-4.325166,5.394825,-2.187421,1.778519,-0.194288,-0.316406,0.078369,-1.081543
943,-0.905562,-3.827401,6.71487,0.802788,-4.553786,3.553829,-2.272569,1.724156,-0.31756,-0.30249,0.097656,-1.093262
944,-1.034312,-3.943119,8.45672,0.809305,-4.665627,1.706837,-2.458562,1.694566,-0.288214,-0.27832,0.125488,-1.107666
945,-1.157034,-4.231721,10.195843,0.908722,-4.815756,-0.145937,-2.623333,1.74501,-0.162784,-0.258301,0.155273,-1.124268
946,-1.685665,-3.885252,12.629919,0.444258,-4.425971,-2.74316,-2.679874,1.858388,-0.085632,-0.230469,0.189453,-1.138672
947,-2.31428,-3.149208,15.613457,-0.195697,-3.546203,-5.884994,-2.610518,1.885911,-0.091944,-0.199951,0.211182,-1.155029
948,-2.871759,-2.381622,18.725726,-0.727585,-2.434158,-9.11056,-2.414779,1.841264,-0.21013,-0.175537,0.230469,-1.173584
949,-3.208392,-1.49643,22.53092,-1.014994,-0.937337,-12.952055,-2.160226,1.705185,-0.261027,-0.151123,0.245605,-1.191895
950,-3.368175,-1.070837,25.19916,-1.015333,0.215165,-15.611365,-1.897863,1.327777,-0.275259,-0.124268,0.256592,-1.212402
951,-3.266381,-0.565764,26.480244,-0.948911,1.406285,-16.819837,-1.748416,0.904646,-0.202924,-0.105957,0.267578,-1.241943
952,-3.149599,0.369444,27.088085,-1.160697,2.885582,-17.282094,-1.69682,0.5416,-0.164934,-0.085449,0.278564,-1.262451
953,-3.006701,1.050482,26.944683,-1.382258,3.987359,-16.989065,-1.607805,0.203468,-0.105237,-0.075195,0.287109,-1.27832
954,-2.66661,0.827513,26.345921,-1.156923,4.18753,-16.321912,-1.436421,-0.01713,-0.011499,-0.066895,0.287109,-1.300781
955,-2.319096,0.23319,26.112902,-0.777656,4.042242,-16.078675,-1.267752,-0.128934,0.080641,-0.069092,0.289307,-1.312012
956,-1.966939,-0.10359,25.639081,-0.506918,4.031765,-15.578716,-1.087864,-0.209808,0.12551,-0.061035,0.297852,-1.321289
957,-1.73297,-0.177943,25.701511,-0.410163,4.271133,-15.58784,-0.936382,-0.205538,0.162782,-0.060791,0.295654,-1.33252
958,-1.573654,-0.578069,26.069623,-0.230667,4.216611,-15.967131,-0.794453,-0.224229,0.178248,-0.059082,0.304199,-1.32373
959,-1.531073,-0.934418,26.30404,-0.169668,4.088994,-16.232831,-0.562733,-0.251095,0.148287,-0.06958,0.3125,-1.317383
960,-1.652092,-0.850474,26.47558,-0.415186,4.214745,-16.38792,-0.228333,-0.291315,0.060897,-0.080322,0.31665,-1.303955
961,-1.863459,-0.41917,26.46546,-0.861396,4.491413,-16.324511,0.144468,-0.335744,0.008073,-0.088867,0.322754,-1.279541
962,-2.073266,-0.07956,26.497342,-1.241878,4.593531,-16.336275,0.574319,-0.408629,-0.039143,-0.107666,0.324707,-1.266113
963,-2.218862,0.123838,26.058335,-1.499791,4.395644,-15.924399,0.97367,-0.518623,-0.041204,-0.11792,0.320313,-1.243652
964,-2.155764,0.021891,24.938076,-1.446005,3.781687,-14.888561,1.362174,-0.63109,-0.0185,-0.136475,0.315674,-1.214355
965,-1.992241,-0.573211,23.605501,-1.097878,2.670217,-13.706819,1.629597,-0.695888,0.045452,-0.161133,0.304688,-1.198242
966,-1.767477,-1.012031,22.648948,-0.735236,1.771273,-12.846277,1.809105,-0.723053,0.071459,-0.17334,0.293945,-1.177979
967,-1.613265,-1.425362,21.769977,-0.440574,0.870562,-12.041279,1.988526,-0.800871,0.109049,-0.189453,0.274658,-1.161621
968,-1.476982,-2.278807,20.945987,0.006578,-0.433505,-11.303693,2.087884,-0.905729,0.141726,-0.205566,0.257568,-1.147705
969,-1.402792,-2.669177,19.682286,0.18923,-1.362094,-10.051228,2.11989,-1.041442,0.147718,-0.217529,0.244629,-1.133789
970,-1.415907,-2.979534,17.853304,0.232004,-2.235573,-8.202737,2.101614,-1.150474,0.169271,-0.24585,0.218994,-1.117188
971,-1.327731,-3.309557,16.162427,0.37707,-2.997889,-6.459907,2.11303,-1.167856,0.200017,-0.257813,0.199707,-1.109863
972,-1.304622,-3.498611,14.782226,0.420049,-3.572887,-5.002948,2.142789,-1.178637,0.185203,-0.271729,0.178223,-1.095947
973,-1.281223,-3.875357,13.341358,0.546858,-4.253485,-3.463259,2.181375,-1.160172,0.171602,-0.287598,0.156982,-1.086182
974,-1.256084,-4.091471,12.186106,0.624911,-4.728883,-2.1897,2.268181,-1.145882,0.106339,-0.303467,0.12915,-1.076416
975,-1.067204,-4.247292,10.725002,0.831836,-5.012199,-0.597989,2.387768,-1.149935,0.009108,-0.317139,0.101563,-1.064209
976,-0.928102,-4.369076,9.260295,0.983796,-5.211211,1.005171,2.442771,-1.128196,-0.04983,-0.328857,0.075928,-1.054443
977,-0.743448,-4.396398,8.210051,1.145703,-5.274104,2.186938,2.425347,-1.081752,-0.122836,-0.342529,0.050293,-1.055908
978,-0.664741,-4.272721,7.345205,1.149786,-5.205559,3.162402,2.309028,-1.091314,-0.155728,-0.354248,0.022705,-1.041748
979,-0.584125,-3.873891,6.007453,1.039331,-4.753233,4.543741,2.151587,-1.117097,-0.160555,-0.36792,-0.00293,-1.029785
980,-0.489928,-3.278547,4.951195,0.866823,-4.101549,5.578584,1.992495,-1.120024,-0.142795,-0.375732,-0.02417,-1.022217
981,-0.370054,-2.810491,3.299906,0.771624,-3.375106,7.17873,1.850212,-1.140428,-0.085278,-0.387207,-0.051758,-1.016846
982,-0.136451,-2.252243,1.773477,0.757311,-2.483481,8.589996,1.817986,-1.069066,-0.03064,-0.401367,-0.064697,-1.005371
983,-0.142647,-1.418694,0.703895,0.423819,-1.495967,9.479686,1.82152,-0.972681,0.035987,-0.411133,-0.088135,-0.997803
984,-0.082556,-1.059867,0.001171,0.341377,-0.968464,10.087722,1.756171,-0.904069,0.125773,-0.420898,-0.107178,-0.988281
985,0.052282,-1.051422,-1.162128,0.471002,-0.561429,11.198922,1.720245,-0.894163,0.151104,-0.424561,-0.126221,-0.983154
986,0.2596,-0.821045,-2.410605,0.582925,0.13533,12.301507,1.658492,-0.859051,0.107225,-0.428223,-0.141113,-0.973877
987,0.518316,-0.374989,-3.587114,0.658735,1.052112,13.238394,1.494608,-0.83124,0.059931,-0.446289,-0.1604,-0.96875
988,0.698636,0.236013,-4.83358,0.60201,2.132139,14.171402,1.315713,-0.77701,0.01107,-0.447998,-0.173096,-0.96167
989,0.739663,0.84813,-5.899782,0.419548,3.117138,14.929401,1.124774,-0.690156,-0.005617,-0.458252,-0.183838,-0.949951
990,0.603974,1.353898,-6.815131,0.117792,3.900749,15.59314,0.936707,-0.576915,0.006192,-0.464111,-0.188232,-0.954346
991,0.443547,1.65405,-7.801561,-0.124104,4.527513,16.391659,0.684439,-0.414586,0.072837,-0.461914,-0.19873,-0.945068
992,0.311718,1.979755,-8.368558,-0.362317,5.017167,16.794521,0.422671,-0.204244,0.171422,-0.468018,-0.203125,-0.942627
993,0.316891,2.115177,-8.435809,-0.417245,5.182236,16.791769,0.177027,0.00456,0.284168,-0.46582,-0.200928,-0.942871
994,0.462136,1.568358,-8.112965,-0.084433,4.649852,16.658506,-0.026821,0.188867,0.352842,-0.466064,-0.19873,-0.947266
995,0.577937,0.720808,-7.516561,0.340037,3.731492,16.393913,-0.268112,0.29715,0.375749,-0.462158,-0.192383,-0.945313
996,0.682475,-0.361307,-7.064773,0.86049,2.654632,16.348716,-0.498517,0.372101,0.3216,-0.458252,-0.183838,-0.949951
997,0.576007,-0.959407,-6.752794,0.999479,1.947909,16.297973,-0.714969,0.429857,0.199306,-0.454346,-0.17334,-0.957031
998,0.404258,-1.060003,-6.650825,0.878673,1.700332,16.282376,-0.94947,0.529832,0.087192,-0.450439,-0.1604,-0.964111
999,0.161825,-1.06428,-6.055753,0.647761,1.315283,15.786037,-1.158994,0.659639,0.006927,-0.44873,-0.1521,-0.9646
1000,-0.136016,-0.94893,-5.477858,0.316061,1.015928,15.271009,-1.348673,0.766189,-0.059328,-0.436768,-0.132813,-0.974121
1001,-0.415751,-0.966268,-4.871728,0.054731,0.605428,14.759414,-1.479507,0.898518,-0.035613,-0.428711,-0.124268,-0.985596
1002,-0.486832,-1.213883,-3.806408,0.076114,-0.05719,13.836329,-1.62709,1.054399,0.082208,-0.416992,-0.10083,-0.995117
1003,-0.523888,-1.884955,-2.893683,0.310183,-1.002571,13.14422,-1.797966,1.150923,0.185869,-0.405029,-0.07959,-1.004883
1004,-0.595158,-3.085707,-2.430794,0.741991,-2.279411,12.980911,-2.005717,1.249779,0.225913,-0.391113,-0.058105,-1.016846
1005,-0.501179,-4.119458,-1.926619,1.260915,-3.350154,12.661989,-2.238613,1.416931,0.168788,-0.379883,-0.021973,-1.024658
1006,-0.639224,-5.02306,-0.632047,1.523941,-4.565873,11.506234,-2.473127,1.599271,0.069666,-0.361816,-0.000732,-1.038818
1007,-0.897872,-6.089004,0.894647,1.75634,-5.959979,10.084271,-2.664384,1.7391,-0.027722,-0.341797,0.0271,-1.048584
1008,-1.249777,-7.093655,2.940384,1.895659,-7.336032,8.048694,-2.904498,1.870833,-0.155304,-0.315918,0.061279,-1.062988
1009,-1.627217,-7.69573,6.192983,1.880457,-8.375189,4.661457,-3.079421,1.981318,-0.28843,-0.30249,0.095459,-1.072998
