,acc_x,acc_y,acc_z,freeacc_x,freeacc_y,freeacc_z,gyr_x,gyr_y,gyr_z,mag_x,mag_y,mag_z
0,-0.084785,-0.095127,9.826403,0.048301,0.068921,-0.014181,-0.0205,0.014358,0.00428,0.296631,0.508301,-0.946289
1,-0.08107,-0.129045,9.814272,0.079642,0.082448,-0.002098,-0.019992,0.01395,0.002417,0.298828,0.50415,-0.952881
2,-0.075624,-0.10854,9.807243,0.058229,0.081215,0.005061,-0.018618,0.012418,0.001131,0.296875,0.506104,-0.953125
3,-0.077,-0.110385,9.807212,0.060495,0.080559,0.00507,-0.019016,0.015625,-0.000326,0.301025,0.50415,-0.946289
4,-0.051433,-0.09187,9.813706,0.034808,0.099418,-0.001018,-0.021828,0.0134,0.004569,0.301025,0.506348,-0.953125
5,-0.086543,-0.136746,9.814121,0.088051,0.079248,-0.002053,-0.018147,0.014502,0.000248,0.296875,0.50415,-0.948486
6,-0.042352,-0.105134,9.794557,0.044741,0.111739,0.018214,-0.018295,0.014191,0.004545,0.307373,0.502197,-0.946045
7,-0.069023,-0.142235,9.827564,0.087995,0.097714,-0.015269,-0.018612,0.01242,0.001119,0.298828,0.506348,-0.944092
8,-0.022968,-0.125517,9.847608,0.05802,0.136726,-0.034627,-0.019943,0.011462,0.001415,0.299072,0.501953,-0.948486
9,-0.046198,-0.110784,9.794477,0.051182,0.109596,0.018221,-0.020022,0.016442,0.003382,0.299072,0.501953,-0.948486
10,-0.013897,-0.138889,9.828451,0.067999,0.149073,-0.015389,-0.018608,0.012421,0.001113,0.296875,0.506104,-0.946289
11,-0.00844,-0.118376,9.821476,0.046916,0.148149,-0.008277,-0.01998,0.013952,0.002393,0.301025,0.50415,-0.950684
12,-0.018223,-0.127967,9.78882,0.05881,0.141086,0.024207,-0.020843,0.015078,0.001812,0.302979,0.506348,-0.950684
13,-0.051672,-0.118385,9.794361,0.059642,0.106455,0.018235,-0.016407,0.012254,0.001388,0.296875,0.499756,-0.946045
14,-0.031219,-0.136987,9.847432,0.070789,0.132004,-0.034608,-0.021348,0.015484,0.003667,0.298828,0.50415,-0.946289
15,-0.022368,-0.133659,9.788736,0.065309,0.138877,0.024217,-0.019974,0.013953,0.002383,0.305176,0.502197,-0.943848
16,-0.015434,-0.127995,9.821347,0.057331,0.144154,-0.008281,-0.018792,0.014597,0.006383,0.302979,0.50415,-0.944092
17,-0.03714,-0.12804,9.807776,0.063843,0.123445,0.00499,-0.021344,0.015485,0.003659,0.302979,0.50415,-0.948486
18,-0.033375,-0.161897,9.795552,0.094811,0.136778,0.017154,-0.01875,0.012108,0.005393,0.294922,0.501953,-0.950684
19,-0.045029,-0.100012,9.819912,0.039012,0.107753,-0.007168,-0.020008,0.016444,0.003358,0.300781,0.508301,-0.944092
20,-0.06148,-0.13193,9.794131,0.074219,0.100944,0.018276,-0.02008,0.011151,0.005683,0.298828,0.508301,-0.950928
21,-0.047542,-0.103767,9.819861,0.043229,0.106152,-0.007168,-0.016397,0.012258,0.001372,0.303223,0.502197,-0.946045
22,-0.048818,-0.105558,9.819836,0.045171,0.105251,-0.007169,-0.020118,0.013639,0.006664,0.296875,0.50415,-0.948486
23,-0.041911,-0.10006,9.852466,0.037572,0.110706,-0.039682,-0.02098,0.014766,0.006082,0.303223,0.502197,-0.943848
24,-0.071787,-0.107587,9.806219,0.053624,0.083654,0.006119,-0.019098,0.012832,0.00294,0.298828,0.50415,-0.946289
25,-0.07985,-0.131907,9.81306,0.079267,0.083245,-0.00091,-0.019605,0.013236,0.004797,0.301025,0.501953,-0.955078
26,-0.086269,-0.102034,9.825259,0.052248,0.068139,-0.013105,-0.021291,0.013001,0.002649,0.298828,0.508301,-0.948486
27,-0.06388,-0.122739,9.787021,0.065788,0.09536,0.025374,-0.015605,0.01611,0.003913,0.301025,0.50415,-0.948486
28,-0.065343,-0.124483,9.78699,0.067714,0.094438,0.025378,-0.02011,0.01364,0.006648,0.305176,0.502197,-0.948486
29,-0.070264,-0.109567,9.838733,0.054523,0.085939,-0.02638,-0.020778,0.012599,0.000783,0.305176,0.50415,-0.948486
30,-0.078382,-0.134024,9.845546,0.079877,0.08535,-0.033389,-0.020462,0.014364,0.004205,0.299072,0.5,-0.952881
31,-0.081277,-0.120956,9.805989,0.068577,0.078356,0.006169,-0.018265,0.014195,0.00449,0.302979,0.50415,-0.946289
32,-0.094482,-0.113418,9.825058,0.064966,0.063516,-0.01306,-0.02042,0.011876,0.003213,0.302979,0.506348,-0.944092
33,-0.097219,-0.100304,9.78551,0.053643,0.056531,0.02649,-0.017754,0.013793,0.002628,0.299072,0.501953,-0.946045
34,-0.078411,-0.104155,9.79906,0.051401,0.07569,0.013187,-0.020457,0.014365,0.004195,0.296875,0.501953,-0.943848
35,-0.098448,-0.119193,9.824951,0.071452,0.061319,-0.013029,-0.020926,0.01228,0.005064,0.296875,0.50415,-0.946289
36,-0.081078,-0.108137,9.798996,0.055643,0.074098,0.013198,-0.019121,0.015323,0.003899,0.302979,0.50415,-0.950684
37,-0.074199,-0.102671,9.831658,0.04814,0.079523,-0.019347,-0.020766,0.012604,0.000762,0.296875,0.501953,-0.952881
38,-0.071863,-0.121428,9.779824,0.06551,0.08647,0.032448,-0.018609,0.014922,0.002037,0.298828,0.50415,-0.948486
39,-0.085264,-0.113839,9.798895,0.06218,0.07186,0.013221,-0.018608,0.014922,0.002034,0.296631,0.508301,-0.946289
40,-0.073344,-0.140189,9.81925,0.083356,0.091168,-0.00706,-0.020291,0.014691,-0.000116,0.296875,0.50415,-0.952881
41,-0.035771,-0.131086,9.80692,0.063651,0.124271,0.00582,-0.019077,0.012837,0.0029,0.298828,0.508301,-0.946289
42,-0.06931,-0.121568,9.812392,0.064178,0.089322,-8.7e-05,-0.019465,0.016051,0.001447,0.294678,0.506104,-0.946289
43,-0.058604,-0.132807,9.793255,0.072022,0.102626,0.019159,-0.018175,0.009222,0.002489,0.301025,0.506348,-0.948486
44,-0.051549,-0.127208,9.825937,0.064242,0.107743,-0.013407,-0.018092,0.014522,0.000166,0.301025,0.506348,-0.948486
45,-0.022379,-0.125313,9.780927,0.054243,0.13479,0.032011,-0.018129,0.01701,0.001152,0.298828,0.50415,-0.950684
46,-0.042666,-0.140239,9.806766,0.074048,0.120124,0.005841,-0.019932,0.013966,0.002308,0.296875,0.50415,-0.950684
47,-0.035847,-0.134754,9.839454,0.066619,0.125524,-0.026729,-0.018248,0.014196,0.004455,0.298828,0.50415,-0.946289
48,-0.038587,-0.121512,9.79995,0.054889,0.118304,0.012776,-0.019579,0.013238,0.004741,0.298828,0.506348,-0.953125
49,-0.026507,-0.147862,9.820286,0.07644,0.137886,-0.007482,-0.018557,0.012438,0.001024,0.303223,0.497803,-0.948242
50,-0.032964,-0.117846,9.832622,0.049501,0.122798,-0.019804,-0.018244,0.014197,0.004449,0.298828,0.506348,-0.950684
51,-0.022233,-0.128954,9.81349,0.057321,0.136111,-0.000563,-0.017184,0.010911,-0.000255,0.299072,0.5,-0.948242
52,-0.045055,-0.113778,9.760371,0.049687,0.108903,0.052283,-0.023488,0.015667,0.003275,0.302979,0.508545,-0.953125
53,-0.0489,-0.114234,9.851644,0.050519,0.106574,-0.039035,-0.017381,0.013068,0.005024,0.298828,0.50415,-0.946289
54,-0.019438,-0.112227,9.806684,0.040126,0.133395,0.006332,-0.017891,0.013467,0.006879,0.296875,0.50415,-0.952881
55,-0.0491,-0.119225,9.760286,0.056138,0.106684,0.052294,-0.017728,0.013798,0.002582,0.296875,0.501953,-0.946045
56,-0.025866,-0.099109,9.858488,0.029251,0.123834,-0.045511,-0.018711,0.012111,0.005304,0.30127,0.497803,-0.952637
57,-0.043495,-0.115511,9.792974,0.050777,0.111107,0.019697,-0.018236,0.014198,0.004434,0.301025,0.506348,-0.946289
58,-0.053085,-0.124597,9.760198,0.062408,0.104182,0.052305,-0.018583,0.014929,0.001994,0.302979,0.506348,-0.948486
59,-0.032928,-0.143637,9.813256,0.074392,0.129774,-0.000535,-0.018196,0.011712,0.003441,0.296875,0.501953,-0.946045
60,-0.059468,-0.111644,9.811998,0.051516,0.094666,0.000466,-0.020077,0.013639,0.006569,0.299072,0.501953,-0.946045
61,-0.072873,-0.10431,9.831075,0.048274,0.080024,-0.018766,-0.02077,0.015102,0.00169,0.301025,0.506348,-0.948486
62,-0.062242,-0.115605,9.811935,0.055761,0.093101,0.000474,-0.019216,0.012509,0.007146,0.301025,0.5,-0.950684
63,-0.071707,-0.124797,9.779142,0.067608,0.086423,0.033101,-0.02042,0.014371,0.004123,0.303223,0.502197,-0.948486
64,-0.064983,-0.119547,9.81187,0.060063,0.091566,0.000485,-0.020419,0.014372,0.004121,0.294678,0.508301,-0.948486
65,-0.078389,-0.112117,9.830946,0.056837,0.076918,-0.018745,-0.018226,0.0142,0.004417,0.301025,0.50415,-0.950684
66,-0.076024,-0.13054,9.779035,0.073854,0.083931,0.033125,-0.019941,0.01646,0.003249,0.301025,0.501953,-0.94165
67,-0.081207,-0.115909,9.830879,0.061077,0.075294,-0.018733,-0.019174,0.010024,0.006144,0.300781,0.508301,-0.950928
68,-0.063588,-0.104711,9.805091,0.045079,0.088201,0.007332,-0.020759,0.015106,0.001673,0.302979,0.506348,-0.950684
69,-0.105134,-0.102426,9.777729,0.055458,0.047539,0.03413,-0.01835,0.011379,0.007712,0.300781,0.508301,-0.950928
70,-0.05686,-0.116515,9.877225,0.053673,0.098827,-0.064748,-0.018911,0.015668,-0.00047,0.298828,0.508301,-0.948486
71,-0.09591,-0.115361,9.75855,0.065124,0.05997,0.053386,-0.018219,0.014201,0.004403,0.298828,0.506348,-0.950684
72,-0.081041,-0.1029,9.824081,0.048031,0.071021,-0.011893,-0.021229,0.01302,0.002528,0.301025,0.506348,-0.953125
73,-0.057156,-0.138846,9.825232,0.075174,0.104548,-0.012849,-0.020752,0.015108,0.00166,0.296875,0.50415,-0.948486
74,-0.083836,-0.106931,9.824014,0.052294,0.069414,-0.011882,-0.019381,0.013582,0.000386,0.299072,0.5,-0.952881
75,-0.085162,-0.108727,9.823983,0.054563,0.068756,-0.011875,-0.01719,0.013409,0.000685,0.296875,0.50415,-0.948486
76,-0.058386,-0.105463,9.870428,0.043095,0.093795,-0.057937,-0.019071,0.015332,0.003809,0.294922,0.499756,-0.948242
77,-0.037006,-0.11062,9.792784,0.042299,0.114981,0.019975,-0.019722,0.014318,-0.002059,0.302979,0.506348,-0.953125
78,-0.05032,-0.103304,9.811867,0.038877,0.100038,0.000734,-0.020365,0.01189,0.003095,0.298828,0.50415,-0.952881
79,-0.046381,-0.1371,9.799315,0.070045,0.113567,0.013212,-0.02122,0.013021,0.00251,0.301025,0.506348,-0.946289
80,-0.060938,-0.114496,9.779006,0.052586,0.092475,0.0334,-0.019886,0.013979,0.002227,0.301025,0.501953,-0.952881
81,-0.028983,-0.143198,9.81294,0.07028,0.131977,-0.000202,-0.019885,0.01398,0.002224,0.299072,0.5,-0.955078
82,-0.047591,-0.104042,9.844561,0.038033,0.102845,-0.031928,-0.018038,0.014543,8.7e-05,0.301025,0.506348,-0.950684
83,-0.024748,-0.124527,9.80631,0.051164,0.130216,0.006553,-0.021862,0.010591,0.007655,0.301025,0.501953,-0.950684
84,-0.040991,-0.156034,9.780029,0.086063,0.123501,0.032486,-0.017045,0.01624,-0.002634,0.294678,0.506104,-0.950684
85,-0.032704,-0.096508,9.818812,0.026552,0.114463,-0.00595,-0.02005,0.013638,0.006507,0.296875,0.50415,-0.950684
86,-0.023791,-0.16191,9.793663,0.086332,0.141843,0.019065,-0.019058,0.015334,0.003787,0.303223,0.502197,-0.950684
87,-0.062541,-0.120672,9.811599,0.058292,0.092994,0.000761,-0.019877,0.013982,0.00221,0.298828,0.50415,-0.944092
88,-0.011638,-0.136142,9.819877,0.057733,0.146097,-0.006884,-0.01902,0.012851,0.002791,0.296631,0.508301,-0.953125
89,-0.046239,-0.111233,9.785888,0.0445,0.105308,0.026726,-0.019874,0.013983,0.002205,0.302979,0.506348,-0.948486
90,-0.022356,-0.147075,9.786991,0.071355,0.138534,0.025807,-0.019873,0.013983,0.002203,0.301025,0.50415,-0.948486
91,-0.055786,-0.137664,9.792352,0.072196,0.10387,0.020026,-0.020863,0.012287,0.004916,0.299072,0.501953,-0.950684
92,-0.057238,-0.139485,9.792318,0.074218,0.102955,0.020031,-0.016385,0.017251,0.003219,0.296875,0.50415,-0.948486
93,-0.038659,-0.143607,9.806005,0.072512,0.122279,0.006586,-0.02339,0.013201,0.002165,0.301025,0.501953,-0.946045
94,-0.065209,-0.111807,9.80485,0.049628,0.087195,0.007497,-0.019526,0.013245,0.004631,0.296875,0.501953,-0.950684
95,-0.054498,-0.122981,9.785705,0.057277,0.10057,0.026743,-0.02038,0.014378,0.004044,0.298828,0.508301,-0.950928
96,-0.054767,-0.140319,9.825013,0.073423,0.105705,-0.012637,-0.01785,0.013464,0.006787,0.301025,0.506348,-0.950684
97,-0.050236,-0.104237,9.779151,0.038057,0.098801,0.033425,-0.020856,0.012288,0.0049,0.298828,0.508301,-0.950928
98,-0.078277,-0.126475,9.771876,0.067455,0.078035,0.040224,-0.018632,0.009631,0.004214,0.299072,0.501953,-0.943848
99,-0.071491,-0.121391,9.804692,0.060397,0.083318,0.007523,-0.020888,0.014772,0.005888,0.294678,0.50415,-0.946289
100,-0.098293,-0.089386,9.803558,0.037503,0.048227,0.00842,-0.018046,0.017037,0.001043,0.298828,0.508301,-0.948486
101,-0.074453,-0.125077,9.804623,0.064677,0.08173,0.007537,-0.018324,0.011373,0.007637,0.303223,0.502197,-0.946045
102,-0.067813,-0.119907,9.837448,0.057362,0.086763,-0.025176,-0.018862,0.015689,-0.000539,0.303223,0.502197,-0.943848
103,-0.063423,-0.083779,9.791636,0.021937,0.079888,0.020838,-0.019855,0.013989,0.002172,0.298828,0.506348,-0.950684
104,-0.091777,-0.106041,9.784315,0.051356,0.059171,0.027682,-0.020368,0.014381,0.004022,0.294922,0.501953,-0.950684
105,-0.085156,-0.100993,9.817147,0.044343,0.06444,-0.005037,-0.018999,0.012857,0.002752,0.299072,0.501953,-0.950684
106,-0.054285,-0.114369,9.811754,0.047827,0.097495,0.000718,-0.021184,0.013033,0.002439,0.299072,0.501953,-0.948486
107,-0.075742,-0.114109,9.797967,0.054014,0.076872,0.014214,-0.018854,0.015692,-0.000549,0.305176,0.5,-0.946045
108,-0.077171,-0.116094,9.797932,0.05606,0.07601,0.014219,-0.021696,0.013424,0.004286,0.294678,0.50415,-0.946289
109,-0.078638,-0.117906,9.797899,0.058324,0.075354,0.014227,-0.015332,0.016475,-0.000515,0.298828,0.508301,-0.953125
110,-0.070995,-0.128339,9.870044,0.065345,0.08634,-0.057853,-0.021321,0.010198,0.005725,0.301025,0.506348,-0.946289
111,-0.089034,-0.128627,9.764952,0.071809,0.067817,0.046982,-0.019507,0.013249,0.00459,0.298828,0.506348,-0.948486
112,-0.062302,-0.125884,9.811565,0.060649,0.092775,0.000743,-0.020323,0.011901,0.003009,0.301025,0.50415,-0.952881
113,-0.056672,-0.105359,9.805126,0.03941,0.091986,0.007342,-0.020356,0.014383,0.004,0.301025,0.50415,-0.946289
114,-0.064937,-0.129806,9.811497,0.064934,0.091213,0.000756,-0.018988,0.01286,0.002732,0.305176,0.506348,-0.950684
115,-0.047214,-0.118342,9.785952,0.049,0.104487,0.026587,-0.019839,0.013994,0.002144,0.296875,0.50415,-0.944092
116,-0.052756,-0.104408,9.837929,0.036489,0.095431,-0.025407,-0.023355,0.013213,0.002099,0.301025,0.501953,-0.946045
117,-0.068848,-0.13577,9.811389,0.071461,0.089003,0.000781,-0.016284,0.012295,0.001188,0.301025,0.506348,-0.953125
118,-0.03905,-0.133288,9.766743,0.060563,0.116101,0.045835,-0.019533,0.015731,0.005568,0.299072,0.501953,-0.946045
119,-0.044735,-0.119191,9.818728,0.048356,0.107273,-0.006161,-0.019833,0.013996,0.002134,0.298828,0.50415,-0.946289
120,-0.046092,-0.121113,9.818698,0.050385,0.106367,-0.006161,-0.019316,0.013607,0.000281,0.298828,0.50415,-0.950684
121,-0.043131,-0.138965,9.766647,0.067097,0.11389,0.045851,-0.018464,0.012473,0.000865,0.296875,0.50415,-0.948486
122,-0.043468,-0.156398,9.80588,0.083489,0.118951,0.006541,-0.017645,0.013819,0.002443,0.296875,0.50415,-0.948486
123,-0.050034,-0.126578,9.81861,0.056956,0.104105,-0.006149,-0.019828,0.013997,0.002125,0.300781,0.508301,-0.948486
124,-0.019191,-0.139965,9.813254,0.060366,0.137191,-0.000439,-0.020644,0.012651,0.000542,0.296875,0.5,-0.948242
125,-0.033465,-0.117276,9.793084,0.042966,0.116468,0.019631,-0.022673,0.011722,0.006948,0.294922,0.501953,-0.946045
126,-0.034777,-0.11929,9.793055,0.045035,0.115526,0.019629,-0.018491,0.014956,0.001849,0.301025,0.50415,-0.944092
127,-0.06745,-0.125499,9.837593,0.0603,0.086834,-0.02537,-0.020339,0.014386,0.003966,0.296875,0.506104,-0.948486
128,-0.057562,-0.120822,9.779194,0.053142,0.094012,0.033173,-0.018971,0.012863,0.0027,0.303223,0.502197,-0.948486
129,-0.043152,-0.109105,9.845011,0.037207,0.105091,-0.032392,-0.020003,0.013638,0.006399,0.301025,0.501953,-0.950684
130,-0.060153,-0.12471,9.77913,0.057449,0.092478,0.033183,-0.020635,0.012655,0.000527,0.301025,0.506348,-0.953125
131,-0.085888,-0.108491,9.817334,0.049214,0.063661,-0.005292,-0.019851,0.01648,0.003102,0.299072,0.5,-0.948242
132,-0.055146,-0.121811,9.811993,0.052676,0.096766,0.000402,-0.019333,0.01214,0.011266,0.296875,0.50415,-0.948486
133,-0.036495,-0.12608,9.825776,0.051117,0.116051,-0.013147,-0.020664,0.015137,0.001514,0.301025,0.50415,-0.952881
134,-0.069994,-0.116605,9.831048,0.051745,0.081085,-0.018831,-0.01863,0.012117,0.005124,0.299072,0.497803,-0.948242
135,-0.052114,-0.105103,9.80561,0.035712,0.09441,0.006895,-0.021145,0.013045,0.002364,0.301025,0.506348,-0.950684
136,-0.100329,-0.124969,9.78422,0.068945,0.053729,0.027545,-0.018961,0.012867,0.002682,0.303223,0.5,-0.948242
137,-0.062474,-0.115681,9.772611,0.049076,0.086999,0.039702,-0.01896,0.012867,0.00268,0.294678,0.508301,-0.946289
138,-0.050942,-0.142489,9.792674,0.070826,0.106125,0.019675,-0.02069,0.01762,0.002498,0.298828,0.50415,-0.952881
139,-0.089615,-0.101447,9.810786,0.042916,0.057249,0.001228,-0.01974,0.009045,9.6e-05,0.294922,0.495605,-0.946045
140,-0.086367,-0.119197,9.758684,0.059248,0.064565,0.053286,-0.01999,0.013639,0.006373,0.301025,0.501953,-0.952881
141,-0.040102,-0.118992,9.819266,0.044896,0.109617,-0.006667,-0.017986,0.017057,0.000964,0.299072,0.501953,-0.946045
142,-0.069251,-0.125211,9.772448,0.059761,0.082943,0.039727,-0.019438,0.010774,0.003522,0.298828,0.50415,-0.948486
143,-0.062633,-0.120394,9.805373,0.053025,0.088123,0.006915,-0.01947,0.013254,0.004516,0.301025,0.50415,-0.946289
144,-0.076978,-0.097419,9.785263,0.035286,0.067197,0.026931,-0.0198,0.014006,0.002076,0.301025,0.506348,-0.946289
145,-0.084508,-0.137756,9.830661,0.075673,0.072558,-0.018743,-0.019798,0.014007,0.002074,0.296875,0.506104,-0.948486
146,-0.059874,-0.103645,9.799044,0.035757,0.085553,0.013351,-0.01983,0.016486,0.003068,0.297119,0.497803,-0.950439
147,-0.061126,-0.105582,9.799016,0.038021,0.084898,0.013353,-0.01973,0.009049,7.6e-05,0.301025,0.506348,-0.946289
148,-0.061497,-0.123218,9.838176,0.054682,0.089901,-0.02589,-0.01628,0.014786,0.002127,0.301025,0.506348,-0.950684
149,-0.095886,-0.097704,9.804232,0.040938,0.049302,0.00771,-0.019606,0.014377,-0.002221,0.299072,0.497803,-0.950439
150,-0.052047,-0.136005,9.818989,0.064208,0.102438,-0.006638,-0.020796,0.012296,0.004763,0.290527,0.503906,-0.948486
151,-0.058508,-0.106364,9.831876,0.037745,0.087586,-0.019475,-0.018943,0.012871,0.002649,0.296875,0.501953,-0.950684
152,-0.048425,-0.101417,9.773551,0.030351,0.094812,0.038998,-0.020308,0.014392,0.003907,0.301025,0.50415,-0.950684
153,-0.049026,-0.119261,9.812695,0.047254,0.100052,-0.000231,-0.01927,0.013626,0.000207,0.296875,0.50415,-0.952881
154,-0.018164,-0.132533,9.807405,0.050713,0.13315,0.005405,-0.01894,0.012872,0.002642,0.301025,0.50415,-0.946289
155,-0.031778,-0.125365,9.826499,0.047825,0.118378,-0.013833,-0.018782,0.015722,-0.000649,0.301025,0.50415,-0.946289
156,-0.08533,-0.11357,9.817858,0.052192,0.063546,-0.005854,-0.021636,0.013435,0.004159,0.294922,0.497803,-0.950439
157,-0.02209,-0.138401,9.807316,0.057273,0.13096,0.005412,-0.019909,0.008681,0.004337,0.299072,0.5,-0.952881
158,-0.029169,-0.092718,9.78109,0.016,0.109946,0.031746,-0.017602,0.013831,0.002372,0.301025,0.50415,-0.94165
159,-0.055948,-0.146696,9.851661,0.074963,0.101198,-0.03942,-0.021114,0.013053,0.002304,0.305176,0.50415,-0.946289
160,-0.013621,-0.153035,9.788103,0.068819,0.142648,0.02466,-0.0176,0.013832,0.002368,0.301025,0.501953,-0.946045
161,-0.047174,-0.143492,9.793318,0.069679,0.107955,0.019048,-0.020297,0.014394,0.003886,0.301025,0.50415,-0.952881
162,-0.033,-0.13228,9.859286,0.054022,0.118639,-0.04668,-0.019936,0.01116,0.005322,0.303223,0.502197,-0.948486
163,-0.042888,-0.124704,9.787111,0.050416,0.106334,0.025396,-0.017141,0.018407,0.00251,0.302979,0.50415,-0.950684
164,-0.043632,-0.14251,9.82622,0.067203,0.111321,-0.013802,-0.019934,0.01116,0.005317,0.301025,0.50415,-0.946289
165,-0.037764,-0.122026,9.820058,0.045893,0.110594,-0.007471,-0.022631,0.011723,0.006833,0.298828,0.50415,-0.948486
166,-0.046835,-0.130646,9.787015,0.056754,0.103915,0.025404,-0.019284,0.016112,0.001177,0.296875,0.499756,-0.937012
167,-0.060512,-0.123562,9.806106,0.053906,0.089128,0.006169,-0.019443,0.013258,0.00446,0.299072,0.501953,-0.948486
168,-0.048998,-0.150442,9.826076,0.075853,0.10822,-0.013774,-0.018954,0.015355,0.003609,0.298828,0.506348,-0.948486
169,-0.063384,-0.127364,9.80604,0.058238,0.08759,0.00618,-0.020286,0.014397,0.003866,0.300781,0.508301,-0.950928
170,-0.064101,-0.145259,9.845126,0.075031,0.092497,-0.032999,-0.017587,0.013836,0.002347,0.298828,0.50415,-0.950684
171,-0.059018,-0.108387,9.79988,0.038915,0.085945,0.012484,-0.018074,0.011739,0.003193,0.302979,0.50415,-0.950684
172,-0.087201,-0.130388,9.792039,0.068239,0.065195,0.019846,-0.019957,0.013639,0.006296,0.299072,0.501953,-0.946045
173,-0.060918,-0.128213,9.838934,0.058045,0.090206,-0.026686,-0.018916,0.012879,0.002599,0.299072,0.5,-0.948242
174,-0.082727,-0.111647,9.785886,0.048987,0.063587,0.026144,-0.020768,0.012302,0.004702,0.299072,0.501953,-0.950684
175,-0.056387,-0.109531,9.832793,0.038813,0.088592,-0.020402,-0.018914,0.01288,0.002595,0.296631,0.508301,-0.953125
176,-0.078152,-0.09281,9.779754,0.029692,0.061925,0.032422,-0.018068,0.011741,0.003183,0.30127,0.497803,-0.950439
177,-0.066625,-0.119673,9.7997,0.051879,0.081224,0.012504,-0.019267,0.016118,0.001154,0.299072,0.5,-0.948242
178,-0.087977,-0.119109,9.785752,0.057663,0.060441,0.026171,-0.01943,0.01326,0.004435,0.298828,0.510498,-0.946533
179,-0.061726,-0.116958,9.832676,0.047533,0.085432,-0.020392,-0.018713,0.013263,-0.001697,0.299072,0.501953,-0.950684
180,-0.082957,-0.116392,9.818725,0.053214,0.064612,-0.006722,-0.019949,0.013639,0.006277,0.301025,0.50415,-0.948486
181,-0.072593,-0.111187,9.760479,0.04565,0.072311,0.05168,-0.020564,0.012685,0.000401,0.298828,0.50415,-0.944092
182,-0.072738,-0.14535,9.838615,0.077472,0.083009,-0.026615,-0.018416,0.01498,0.001733,0.296875,0.506104,-0.948486
183,-0.053112,-0.079402,9.820485,0.008928,0.082207,-0.007914,-0.018612,0.014597,0.006014,0.307373,0.502197,-0.943848
184,-0.042113,-0.090097,9.801339,0.016008,0.095502,0.011322,-0.017539,0.011364,0.00132,0.296875,0.5,-0.950684
185,-0.069756,-0.128228,9.832481,0.060448,0.080781,-0.02036,-0.020589,0.015164,0.001392,0.296875,0.50415,-0.948486
186,-0.044734,-0.094046,9.80129,0.020357,0.093912,0.011315,-0.02189,0.01173,0.000644,0.301025,0.501953,-0.946045
187,-0.033261,-0.121167,9.821208,0.042599,0.113189,-0.008579,-0.019774,0.0165,0.002978,0.298828,0.50415,-0.948486
188,-0.086233,-0.125487,9.851493,0.061844,0.064132,-0.03958,-0.021596,0.013444,0.004075,0.296875,0.50415,-0.952881
189,-0.049005,-0.100097,9.80121,0.026944,0.091714,0.01131,-0.018928,0.01536,0.003564,0.294922,0.501953,-0.948486
190,-0.057451,-0.12457,9.807176,0.052638,0.090798,0.005114,-0.019417,0.013262,0.004407,0.296875,0.50415,-0.952881
191,-0.044162,-0.097495,9.834225,0.02265,0.095823,-0.021627,-0.019738,0.014026,0.001968,0.302979,0.50415,-0.950684
192,-0.047784,-0.137259,9.787986,0.061984,0.103387,0.024365,-0.018572,0.012122,0.004993,0.298828,0.50415,-0.948486
193,-0.053728,-0.123816,9.840153,0.050611,0.094281,-0.027809,-0.018892,0.012886,0.002555,0.301025,0.506348,-0.950684
194,-0.050466,-0.1409,9.787921,0.066283,0.101823,0.024376,-0.01811,0.016697,0.005145,0.299072,0.501953,-0.950684
195,-0.03206,-0.145213,9.80184,0.064941,0.121049,0.010682,-0.01869,0.013275,-0.001732,0.294922,0.501953,-0.946045
196,-0.025908,-0.14061,9.834889,0.058423,0.125833,-0.022263,-0.017265,0.015555,0.005732,0.298828,0.508301,-0.946289
197,-0.067083,-0.137479,9.806942,0.067894,0.085416,0.005159,-0.021585,0.013447,0.004051,0.300781,0.508301,-0.946289
198,-0.049065,-0.125667,9.781831,0.051246,0.098659,0.030558,-0.017553,0.013846,0.002291,0.296875,0.50415,-0.948486
199,-0.042764,-0.121062,9.814889,0.044928,0.103706,-0.00239,-0.018044,0.011747,0.003132,0.301025,0.501953,-0.946045
200,-0.051087,-0.145519,9.8208,0.070622,0.102834,-0.008532,-0.019726,0.01403,0.001947,0.300781,0.510498,-0.94873
201,-0.045376,-0.124833,9.81483,0.049262,0.10215,-0.002386,-0.019405,0.013265,0.004381,0.301025,0.506348,-0.948486
202,-0.059011,-0.11798,9.833923,0.046281,0.087067,-0.021626,-0.021578,0.013449,0.004038,0.302979,0.50415,-0.94165
203,-0.055594,-0.135104,9.78167,0.062077,0.094896,0.030584,-0.018069,0.014223,0.004126,0.298828,0.50415,-0.948486
204,-0.074604,-0.096459,9.813969,0.030536,0.065647,-0.001772,-0.016213,0.014806,0.002028,0.296875,0.501953,-0.946045
205,-0.058486,-0.138576,9.781604,0.066372,0.093377,0.030597,-0.02056,0.015175,0.001343,0.298828,0.506348,-0.950684
206,-0.065063,-0.109118,9.794784,0.039825,0.078254,0.017473,-0.020414,0.011541,0.007056,0.301025,0.50415,-0.948486
207,-0.066321,-0.111081,9.794754,0.042088,0.077598,0.017477,-0.019716,0.014034,0.001931,0.298828,0.50415,-0.948486
208,-0.062396,-0.144449,9.781495,0.072736,0.090906,0.030619,-0.019397,0.013267,0.004365,0.298828,0.506348,-0.953125
209,-0.061434,-0.108587,9.827802,0.037899,0.081725,-0.015493,-0.018873,0.012892,0.002519,0.303223,0.502197,-0.948486
210,-0.050366,-0.119276,9.808648,0.044913,0.095015,0.003748,-0.018872,0.012893,0.002516,0.296631,0.508301,-0.948486
211,-0.083873,-0.109768,9.813754,0.045782,0.060301,-0.001747,-0.019711,0.014036,0.001922,0.299072,0.501953,-0.948486
212,-0.072977,-0.12049,9.794595,0.052771,0.07357,0.017498,-0.018899,0.015368,0.003514,0.301025,0.50415,-0.952881
213,-0.079728,-0.090764,9.807816,0.026452,0.058711,0.004338,-0.016202,0.014809,0.002012,0.296631,0.508301,-0.948486
214,-0.063084,-0.149248,9.814391,0.077185,0.091856,-0.002308,-0.021563,0.013453,0.004006,0.30127,0.497803,-0.950439
215,-0.062596,-0.097198,9.821756,0.027226,0.076988,-0.009409,-0.019389,0.013268,0.004348,0.301025,0.506348,-0.948486
216,-0.078501,-0.127968,9.794458,0.06142,0.07045,0.017525,-0.019704,0.014038,0.00191,0.299072,0.501953,-0.946045
217,-0.067413,-0.138627,9.775298,0.068605,0.083994,0.036775,-0.018024,0.011752,0.003093,0.301025,0.50415,-0.948486
218,-0.046751,-0.105383,9.835677,0.030138,0.094427,-0.023166,-0.019208,0.01614,0.001065,0.296631,0.508301,-0.948486
219,-0.04296,-0.138725,9.822364,0.06098,0.107973,-0.009967,-0.019701,0.014039,0.001903,0.301025,0.50415,-0.946289
220,-0.044973,-0.107752,9.744396,0.03255,0.095757,0.068117,-0.018228,0.011355,0.007366,0.296875,0.501953,-0.948486
221,-0.057887,-0.133688,9.841423,0.060378,0.0922,-0.029197,-0.020537,0.015184,0.001305,0.298828,0.506348,-0.950684
222,-0.039771,-0.121861,9.81644,0.043699,0.105481,-0.003925,-0.020191,0.011939,0.002736,0.296875,0.506104,-0.950684
223,-0.068674,-0.110853,9.730297,0.042611,0.073681,0.081889,-0.017523,0.013855,0.002241,0.301025,0.50415,-0.948486
224,-0.042431,-0.125563,9.816382,0.048026,0.103908,-0.003922,-0.020218,0.014414,0.003734,0.302979,0.508545,-0.953125
225,-0.043795,-0.127504,9.816351,0.050295,0.103251,-0.003918,-0.019378,0.01327,0.004325,0.302979,0.50415,-0.944092
226,-0.052561,-0.135596,9.783173,0.060707,0.096743,0.029101,-0.0199,0.013642,0.006166,0.301025,0.501953,-0.952881
227,-0.026798,-0.11765,9.791365,0.035817,0.115947,0.02133,-0.022328,0.009655,0.001372,0.296875,0.5,-0.950684
228,-0.060309,-0.108137,9.796438,0.036535,0.080971,0.015869,-0.016212,0.017288,0.00299,0.30127,0.497803,-0.950439
229,-0.041645,-0.129046,9.849377,0.050633,0.105784,-0.036925,-0.020497,0.012715,0.000283,0.300781,0.508301,-0.950928
230,-0.070533,-0.118066,9.763222,0.04923,0.073796,0.0489,-0.02021,0.014416,0.00372,0.303223,0.502197,-0.950684
231,-0.044771,-0.116472,9.81038,0.039675,0.098616,0.00209,-0.018875,0.015374,0.003473,0.301025,0.506348,-0.948486
232,-0.046264,-0.118297,9.810351,0.041741,0.09774,0.00209,-0.01835,0.015003,0.001629,0.296875,0.50415,-0.948486
233,-0.047682,-0.120055,9.810323,0.044008,0.097084,0.002093,-0.017511,0.013859,0.002221,0.294922,0.499756,-0.952881
234,-0.06887,-0.119261,9.796253,0.049578,0.076296,0.015889,-0.020205,0.014417,0.00371,0.301025,0.506348,-0.953125
235,-0.069732,-0.137741,9.835141,0.067207,0.081239,-0.0231,-0.019623,0.009101,-0.000142,0.298828,0.510498,-0.950928
236,-0.056771,-0.094325,9.823609,0.021884,0.08035,-0.011186,-0.018272,0.016298,0.009339,0.301025,0.50415,-0.952881
237,-0.053218,-0.111198,9.771285,0.037297,0.088305,0.041095,-0.023181,0.013278,0.001753,0.303223,0.502197,-0.948486
238,-0.054235,-0.129722,9.810166,0.054766,0.093017,0.002108,-0.017192,0.013086,0.004647,0.303223,0.5,-0.952881
239,-0.075322,-0.128852,9.796084,0.060473,0.07252,0.015922,-0.019362,0.013274,0.004293,0.301025,0.501953,-0.946045
240,-0.049727,-0.110768,9.804375,0.035461,0.091525,0.008052,-0.01936,0.013274,0.004291,0.301025,0.5,-0.946045
241,-0.078246,-0.116104,9.75711,0.049425,0.065426,0.054917,-0.020196,0.01442,0.003694,0.301025,0.506348,-0.946289
242,-0.064853,-0.105994,9.82344,0.034969,0.075775,-0.011184,-0.021003,0.013093,0.002092,0.298828,0.506348,-0.946289
243,-0.06081,-0.139409,9.809994,0.06575,0.08932,0.002141,-0.02069,0.012317,0.004525,0.303223,0.502197,-0.946045
244,-0.087135,-0.107219,9.809319,0.042721,0.054418,0.002639,-0.017186,0.013087,0.004635,0.301025,0.5,-0.955078
245,-0.056425,-0.120335,9.804226,0.046387,0.087831,0.008064,-0.017835,0.017113,0.000767,0.298828,0.50415,-0.948486
246,-0.070311,-0.11353,9.823318,0.043682,0.072689,-0.011173,-0.021212,0.012687,0.006358,0.299072,0.5,-0.948242
247,-0.059334,-0.10757,9.76528,0.03529,0.080716,0.047032,-0.018516,0.01213,0.004869,0.299072,0.501953,-0.943848
248,-0.072827,-0.11735,9.823255,0.048059,0.071158,-0.011163,-0.019661,0.014054,0.001837,0.302979,0.50415,-0.950684
249,-0.054405,-0.121959,9.837294,0.046925,0.090329,-0.024987,-0.01935,0.013277,0.00427,0.301025,0.50415,-0.952881
250,-0.063135,-0.129816,9.804064,0.05721,0.083855,0.008086,-0.018325,0.015013,0.001592,0.304932,0.508545,-0.944092
251,-0.032283,-0.143128,9.798981,0.060875,0.11727,0.013498,-0.020681,0.01232,0.004505,0.301025,0.50415,-0.948486
252,-0.058698,-0.111091,9.798331,0.037809,0.08239,0.01397,-0.020491,0.015202,0.001233,0.300781,0.508301,-0.946289
253,-0.0527,-0.107212,9.831506,0.031898,0.087312,-0.019105,-0.022538,0.01173,0.006579,0.296875,0.501953,-0.948486
254,-0.068484,-0.137768,9.803919,0.065831,0.080792,0.008115,-0.016677,0.015193,0.003781,0.299072,0.501953,-0.948486
255,-0.043075,-0.119543,9.812325,0.041014,0.100005,0.000135,-0.018318,0.015015,0.001582,0.302979,0.506348,-0.950684
256,-0.051811,-0.127371,9.779082,0.051246,0.09355,0.03322,-0.019651,0.014058,0.001818,0.296875,0.50415,-0.950684
257,-0.065599,-0.120595,9.798175,0.048733,0.078642,0.013987,-0.019341,0.013279,0.004251,0.299072,0.501953,-0.950684
258,-0.059718,-0.116618,9.831358,0.042693,0.083289,-0.019099,-0.021009,0.015573,0.003058,0.302979,0.506348,-0.948486
259,-0.056058,-0.116439,9.74014,0.042283,0.085811,0.07216,-0.017978,0.011766,0.003002,0.305176,0.506348,-0.955322
260,-0.06231,-0.120471,9.831296,0.047025,0.081755,-0.019092,-0.021505,0.013469,0.003886,0.298828,0.508301,-0.950928
261,-0.0565,-0.099842,9.825649,0.025587,0.081153,-0.013263,-0.019862,0.013646,0.006082,0.299072,0.495605,-0.950439
262,-0.05265,-0.132974,9.812105,0.05617,0.09445,0.000155,-0.016975,0.015976,0.001331,0.301025,0.506348,-0.953125
263,-0.046928,-0.112174,9.80647,0.034726,0.093851,0.005974,-0.020975,0.013105,0.002039,0.301025,0.506348,-0.948486
264,-0.048188,-0.114098,9.806441,0.036784,0.092952,0.005973,-0.01828,0.012549,0.000556,0.301025,0.50415,-0.948486
265,-0.05661,-0.138604,9.812005,0.062765,0.092233,0.000174,-0.019332,0.013281,0.004233,0.301025,0.50415,-0.946289
266,-0.050846,-0.100938,9.767565,0.025484,0.085943,0.04488,-0.016637,0.012725,0.002752,0.298828,0.50415,-0.948486
267,-0.044914,-0.113589,9.839593,0.03532,0.096316,-0.027129,-0.019663,0.016534,0.0028,0.296875,0.506104,-0.948486
268,-0.073314,-0.118626,9.792212,0.048789,0.070047,0.019855,-0.019242,0.012082,0.010935,0.296875,0.5,-0.948242
269,-0.042456,-0.131971,9.78717,0.052454,0.10347,0.025223,-0.020466,0.015213,0.001192,0.301025,0.506348,-0.950684
270,-0.056341,-0.125385,9.80626,0.049822,0.088301,0.005988,-0.021492,0.013473,0.00386,0.301025,0.50415,-0.948486
271,-0.077408,-0.124523,9.792107,0.055407,0.067836,0.019875,-0.017464,0.013876,0.002145,0.301025,0.50415,-0.946289
272,-0.059077,-0.129136,9.806195,0.054163,0.086776,0.005997,-0.020156,0.014431,0.00362,0.301025,0.50415,-0.946289
273,-0.067675,-0.136921,9.772912,0.064453,0.080587,0.039127,-0.019322,0.013284,0.004214,0.302979,0.506348,-0.946289
274,-0.074353,-0.107552,9.786456,0.038066,0.065533,0.025651,-0.020154,0.014432,0.003615,0.296631,0.508301,-0.953125
275,-0.068348,-0.103839,9.819677,0.032317,0.070405,-0.007471,-0.02332,0.010412,0.004911,0.301025,0.506348,-0.955322
276,-0.076855,-0.12869,9.825176,0.058114,0.069381,-0.013215,-0.021066,0.016787,-0.003694,0.298828,0.508301,-0.950928
277,-0.06579,-0.12238,9.76723,0.049347,0.077558,0.044901,-0.018181,0.011351,0.007237,0.299072,0.501953,-0.946045
278,-0.040153,-0.121216,9.814594,0.040134,0.101984,-0.002126,-0.019925,0.014855,-0.000667,0.298828,0.50415,-0.950684
279,-0.061242,-0.120344,9.800427,0.045689,0.081526,0.011776,-0.019315,0.013285,0.004201,0.301025,0.5,-0.946045
280,-0.075059,-0.096734,9.780745,0.027347,0.060934,0.031404,-0.018787,0.012922,0.00236,0.305176,0.506348,-0.950684
281,-0.063853,-0.140995,9.839134,0.065832,0.085424,-0.027073,-0.020145,0.014434,0.003599,0.301025,0.50415,-0.946289
282,-0.045499,-0.128802,9.814474,0.048851,0.098937,-0.002117,-0.018256,0.01256,0.000518,0.298828,0.506348,-0.955322
283,-0.059448,-0.105173,9.794802,0.030653,0.078569,0.017503,-0.01964,0.016541,0.002765,0.299072,0.501953,-0.946045
284,-0.048501,-0.132546,9.81441,0.053217,0.09737,-0.00211,-0.018808,0.015392,0.00336,0.302979,0.50415,-0.948486
285,-0.062305,-0.12564,9.833504,0.050815,0.082422,-0.02134,-0.015482,0.010796,0.005747,0.300781,0.508301,-0.946289
286,-0.043729,-0.113291,9.808872,0.0338,0.095939,0.003591,-0.020113,0.011967,0.002578,0.302979,0.506348,-0.946289
287,-0.052135,-0.121061,9.775564,0.043985,0.089781,0.036746,-0.020943,0.013117,0.001979,0.296875,0.506104,-0.950684
288,-0.078459,-0.105953,9.81378,0.036721,0.060305,-0.001724,-0.020942,0.013117,0.001976,0.305176,0.506348,-0.946289
289,-0.042276,-0.133597,9.756376,0.052955,0.102532,0.055988,-0.018273,0.015032,0.001513,0.302979,0.506348,-0.950684
290,-0.068804,-0.118345,9.794591,0.045695,0.073095,0.017519,-0.020436,0.015225,0.001143,0.296875,0.501953,-0.943848
291,-0.069987,-0.137358,9.833296,0.063817,0.077829,-0.021302,-0.021642,0.008116,0.006059,0.296875,0.506104,-0.948486
292,-0.051418,-0.125301,9.808689,0.046806,0.091329,0.0036,-0.020433,0.015226,0.001139,0.303223,0.502197,-0.946045
293,-0.072517,-0.12443,9.794489,0.052304,0.070884,0.017536,-0.019829,0.013649,0.006006,0.299072,0.5,-0.950684
294,-0.073908,-0.126268,9.794455,0.054425,0.070029,0.017541,-0.017738,0.014674,-0.000334,0.303223,0.5,-0.943848
295,-0.048523,-0.125267,9.841887,0.045604,0.094639,-0.029556,-0.020128,0.014439,0.003567,0.288574,0.503906,-0.944092
296,-0.076679,-0.130023,9.794384,0.05879,0.068489,0.017556,-0.018768,0.012928,0.002325,0.301025,0.501953,-0.950684
297,-0.058353,-0.134782,9.808524,0.057834,0.087615,0.003625,-0.020125,0.014439,0.003562,0.298828,0.50415,-0.950684
298,-0.05247,-0.114087,9.803076,0.036189,0.086829,0.009259,-0.020628,0.012332,0.004386,0.298828,0.506348,-0.948486
299,-0.053778,-0.115976,9.803047,0.038454,0.086172,0.009261,-0.017959,0.014247,0.003927,0.301025,0.50415,-0.948486
300,-0.062267,-0.123495,9.769711,0.048352,0.079819,0.042443,-0.019821,0.01365,0.005989,0.296875,0.50415,-0.948486
301,-0.062009,-0.1056,9.855417,0.030373,0.075788,-0.043153,-0.02042,0.015232,0.001118,0.301025,0.50415,-0.948486
302,-0.065068,-0.144353,9.808346,0.068649,0.083632,0.00366,-0.017631,0.010989,0.005345,0.298828,0.508301,-0.948486
303,-0.078761,-0.120523,9.788737,0.050349,0.063308,0.023226,-0.017955,0.014248,0.003919,0.296875,0.5,-0.948242
304,-0.05333,-0.119671,9.836207,0.041455,0.087647,-0.023915,-0.02115,0.012694,0.006207,0.296875,0.506104,-0.953125
305,-0.054422,-0.10453,9.797485,0.027746,0.081643,0.014873,-0.017928,0.011782,0.002905,0.301025,0.501953,-0.946045
306,-0.075438,-0.120637,9.821952,0.049018,0.066316,-0.009949,-0.021447,0.013487,0.003768,0.303223,0.5,-0.946045
307,-0.076683,-0.122568,9.821918,0.051287,0.065657,-0.009942,-0.017925,0.011782,0.002901,0.298828,0.510498,-0.946533
308,-0.05824,-0.110181,9.797401,0.034174,0.079239,0.014873,-0.018777,0.015401,0.003311,0.296875,0.506104,-0.950684
309,-0.059743,-0.112099,9.797371,0.036438,0.078582,0.014876,-0.020408,0.015237,0.0011,0.299072,0.501953,-0.948486
310,-0.061097,-0.114107,9.797339,0.038537,0.07768,0.014877,-0.020614,0.012336,0.004356,0.303223,0.502197,-0.950684
311,-0.062366,-0.116164,9.797307,0.040801,0.077024,0.014881,-0.021441,0.013488,0.003755,0.298828,0.50415,-0.944092
312,-0.063897,-0.135312,9.835942,0.058942,0.081488,-0.023878,-0.020106,0.014446,0.003527,0.296875,0.506104,-0.944092
313,-0.058023,-0.114517,9.830575,0.037439,0.080953,-0.018321,-0.018746,0.012936,0.002289,0.302979,0.50415,-0.946289
314,-0.059344,-0.116293,9.830546,0.039516,0.080092,-0.01832,-0.017412,0.013894,0.002062,0.303223,0.502197,-0.950684
315,-0.053532,-0.095457,9.825194,0.01801,0.079559,-0.012777,-0.020632,0.014805,0.005355,0.298828,0.506348,-0.950684
316,-0.049618,-0.128608,9.811359,0.048446,0.092884,0.000919,-0.019337,0.014527,-0.002586,0.298828,0.506348,-0.946289
317,-0.070566,-0.110452,9.758456,0.037769,0.067161,0.053655,-0.019827,0.016119,0.006961,0.294678,0.506104,-0.944092
318,-0.065145,-0.123941,9.830416,0.048233,0.076996,-0.018306,-0.018741,0.012938,0.002277,0.301025,0.50415,-0.948486
319,-0.053647,-0.117115,9.772616,0.038941,0.085379,0.039673,-0.01927,0.013296,0.00411,0.296875,0.5,-0.952881
320,-0.055157,-0.13617,9.811227,0.057178,0.089781,0.000937,-0.019269,0.013296,0.004108,0.300781,0.508301,-0.948486
321,-0.076126,-0.135134,9.796966,0.062574,0.069364,0.014939,-0.019564,0.014092,0.001671,0.298828,0.50415,-0.946289
322,-0.070365,-0.11443,9.791644,0.040854,0.068622,0.020448,-0.021451,0.015959,0.004738,0.298828,0.508301,-0.953125
323,-0.052138,-0.119432,9.805841,0.039995,0.087723,0.006454,-0.020599,0.01234,0.004323,0.303223,0.502197,-0.950684
324,-0.060632,-0.14399,9.811083,0.065881,0.086695,0.000964,-0.017104,0.013102,0.004476,0.299072,0.501953,-0.952881
325,-0.027929,-0.103356,9.81475,0.017456,0.106072,-0.002058,-0.020384,0.015248,0.001062,0.301025,0.501953,-0.952881
326,-0.075565,-0.122205,9.791511,0.049608,0.065529,0.020467,-0.021374,0.008563,0.00169,0.302979,0.506348,-0.953125
327,-0.050133,-0.121641,9.839078,0.041148,0.090033,-0.026772,-0.018753,0.015408,0.003271,0.300781,0.508301,-0.955322
328,-0.058581,-0.129004,9.805683,0.050847,0.083723,0.00647,-0.019554,0.014096,0.001656,0.301025,0.50415,-0.94165
329,-0.066918,-0.136379,9.772284,0.060713,0.077662,0.03972,-0.019259,0.013299,0.004087,0.296875,0.506104,-0.946289
330,-0.066756,-0.10177,9.819497,0.026888,0.068005,-0.007292,-0.021972,0.016317,0.006552,0.305176,0.50415,-0.948486
331,-0.055782,-0.129497,9.838947,0.049865,0.086947,-0.02676,-0.019527,0.011633,0.000636,0.298828,0.50415,-0.952881
332,-0.051375,-0.145391,9.786419,0.064052,0.095035,0.025724,-0.021414,0.013497,0.0037,0.302979,0.508545,-0.948486
333,-0.0508,-0.093409,9.795062,0.014224,0.080329,0.017388,-0.017095,0.013103,0.004458,0.303223,0.502197,-0.950684
334,-0.046801,-0.12636,9.781132,0.044598,0.093679,0.031177,-0.01984,0.014899,-0.000791,0.298828,0.50415,-0.948486
335,-0.053453,-0.097155,9.795011,0.018572,0.078823,0.017383,-0.01976,0.01119,0.004894,0.29248,0.508301,-0.948486
336,-0.061905,-0.121865,9.800191,0.044457,0.077744,0.011953,-0.020877,0.013144,0.001857,0.296631,0.508301,-0.955322
337,-0.082785,-0.120916,9.785897,0.049785,0.057343,0.025988,-0.020876,0.013144,0.001855,0.301025,0.501953,-0.948486
338,-0.057694,-0.120373,9.833508,0.041294,0.081562,-0.021301,-0.017406,0.016369,0.003029,0.298828,0.50415,-0.950684
339,-0.065714,-0.110193,9.761516,0.034809,0.070303,0.050643,-0.017891,0.011793,0.002832,0.301025,0.5,-0.946045
340,-0.079819,-0.121164,9.819179,0.048751,0.060297,-0.007258,-0.024072,0.011586,0.004117,0.299072,0.501953,-0.950684
341,-0.041624,-0.111891,9.80911,0.028623,0.093906,0.003342,-0.017671,0.014706,-0.000424,0.302979,0.50415,-0.948486
342,-0.062533,-0.110756,9.794813,0.033789,0.073306,0.017381,-0.020578,0.012346,0.004276,0.299072,0.501953,-0.955078
343,-0.037239,-0.110406,9.842448,0.025516,0.097758,-0.029931,-0.020576,0.012346,0.004274,0.292725,0.50415,-0.950684
344,-0.077999,-0.123685,9.852432,0.050064,0.062549,-0.040504,-0.019242,0.013303,0.004054,0.296875,0.506104,-0.948486
345,-0.054114,-0.142324,9.814153,0.061231,0.090628,-0.002037,-0.018731,0.015415,0.003234,0.302979,0.506348,-0.946289
346,-0.035631,-0.129746,9.789845,0.043939,0.104299,0.022572,-0.017373,0.013908,0.002,0.305176,0.50415,-0.946289
347,-0.061874,-0.097466,9.789511,0.020973,0.069706,0.022767,-0.020572,0.012347,0.004264,0.296875,0.50415,-0.948486
348,-0.050831,-0.125068,9.808907,0.043865,0.088418,0.003347,-0.01708,0.013106,0.00443,0.301025,0.50415,-0.948486
349,-0.064887,-0.11853,9.827998,0.0417,0.073384,-0.015877,-0.02035,0.015263,0.001008,0.301025,0.501953,-0.948486
350,-0.046325,-0.106201,9.803712,0.02443,0.087082,0.008708,-0.021101,0.012701,0.006088,0.296875,0.506104,-0.953125
351,-0.047942,-0.125651,9.842218,0.043082,0.0916,-0.029929,-0.020567,0.012349,0.004254,0.305176,0.5,-0.950439
352,-0.02393,-0.144373,9.803943,0.054062,0.119482,0.008529,-0.020055,0.014461,0.003435,0.296875,0.506104,-0.948486
353,-0.050233,-0.112234,9.803626,0.031091,0.084894,0.008707,-0.020855,0.013153,0.001816,0.303223,0.502197,-0.950684
354,-0.058938,-0.136934,9.808704,0.057027,0.08384,0.003375,-0.019252,0.01577,0.005047,0.298828,0.50415,-0.948486
355,-0.053011,-0.116016,9.803567,0.035468,0.083363,0.008709,-0.017873,0.0118,0.002799,0.298828,0.50415,-0.95752
356,-0.054255,-0.117939,9.803537,0.037595,0.082457,0.008709,-0.021384,0.013506,0.00364,0.299072,0.501953,-0.943848
357,-0.055677,-0.119903,9.803506,0.03986,0.081799,0.008713,-0.018715,0.01542,0.003209,0.299072,0.501953,-0.948486
358,-0.077061,-0.136156,9.827682,0.061417,0.066374,-0.015824,-0.019225,0.013308,0.004022,0.302979,0.50415,-0.950684
359,-0.071027,-0.115263,9.822565,0.039857,0.065901,-0.010509,-0.018402,0.012152,0.004622,0.299072,0.501953,-0.943848
360,-0.039682,-0.111001,9.779217,0.026923,0.094025,0.033249,-0.018423,0.014616,0.005636,0.298828,0.50415,-0.950684
361,-0.0469,-0.099356,9.831739,0.01744,0.084306,-0.019288,-0.021377,0.013509,0.003627,0.301025,0.501953,-0.948486
362,-0.0623,-0.12938,9.803345,0.050756,0.077919,0.008731,-0.02002,0.012003,0.002396,0.299072,0.501953,-0.948486
363,-0.056304,-0.108414,9.798254,0.029185,0.077452,0.014022,-0.016264,0.014417,0.006019,0.301025,0.50415,-0.948486
364,-0.083117,-0.093506,9.836466,0.022559,0.047801,-0.024432,-0.01926,0.014573,-0.002688,0.294922,0.501953,-0.946045
365,-0.065832,-0.117212,9.764761,0.040897,0.070616,0.047342,-0.018109,0.011347,0.007042,0.299072,0.501953,-0.948486
366,-0.05342,-0.108599,9.831608,0.028383,0.080376,-0.019296,-0.019503,0.014118,0.001572,0.298828,0.506348,-0.948486
367,-0.062102,-0.133155,9.836619,0.054493,0.079522,-0.024556,-0.017347,0.013918,0.00196,0.294678,0.50415,-0.950684
368,-0.043011,-0.103022,9.773956,0.020588,0.088094,0.038513,-0.020035,0.014468,0.003398,0.301025,0.506348,-0.953125
369,-0.076989,-0.111094,9.817196,0.03798,0.058436,-0.005192,-0.019726,0.011198,0.004812,0.296875,0.506104,-0.950684
370,-0.06547,-0.121281,9.798046,0.044435,0.071937,0.014037,-0.018677,0.012963,0.002166,0.296875,0.5,-0.948242
371,-0.073728,-0.128341,9.764564,0.053979,0.065974,0.047373,-0.019518,0.016583,0.002578,0.301025,0.501953,-0.952881
372,-0.068407,-0.125071,9.797978,0.048853,0.070407,0.014047,-0.019744,0.013662,0.005821,0.300781,0.510498,-0.94873
373,-0.030806,-0.133186,9.826612,0.045262,0.109166,-0.014164,-0.018695,0.015427,0.003176,0.298828,0.50415,-0.946289
374,-0.07125,-0.128805,9.79791,0.053187,0.068879,0.014059,-0.019207,0.013314,0.003986,0.298828,0.506348,-0.953125
375,-0.040429,-0.142072,9.793095,0.056863,0.102338,0.019178,-0.018692,0.015428,0.003171,0.302979,0.510498,-0.955322
376,-0.05991,-0.104645,9.826307,0.02644,0.072816,-0.014054,-0.020004,0.01201,0.002362,0.301025,0.5,-0.952881
377,-0.08802,-0.126205,9.816921,0.055469,0.052241,-0.005144,-0.019489,0.014124,0.001547,0.298828,0.50415,-0.950684
378,-0.04978,-0.116747,9.807132,0.035186,0.085695,0.005172,-0.018918,0.012505,0.00641,0.303223,0.502197,-0.948486
379,-0.038935,-0.144651,9.826421,0.058403,0.104526,-0.014146,-0.022174,0.014675,0.002978,0.298828,0.50415,-0.946289
380,-0.059919,-0.143516,9.812036,0.063425,0.083982,-1.7e-05,-0.018686,0.01543,0.003161,0.296875,0.50415,-0.944092
381,-0.066672,-0.114505,9.826154,0.037525,0.069119,-0.014045,-0.022402,0.011751,0.006217,0.301025,0.50415,-0.946289
382,-0.048376,-0.119644,9.840474,0.036741,0.087967,-0.028171,-0.018127,0.012622,0.00031,0.299072,0.5,-0.943848
383,-0.036391,-0.112028,9.782905,0.026649,0.096667,0.029587,-0.017863,0.014273,0.003758,0.303223,0.502197,-0.950684
384,-0.057768,-0.128403,9.806942,0.048346,0.081199,0.00519,-0.020529,0.012361,0.004172,0.305176,0.5,-0.946045
385,-0.032241,-0.110659,9.816327,0.023871,0.100456,-0.003773,-0.017325,0.013927,0.001925,0.296631,0.508301,-0.953125
386,-0.041006,-0.135263,9.821237,0.049854,0.099377,-0.008937,-0.020296,0.015288,0.000924,0.301025,0.506348,-0.948486
387,-0.080834,-0.112392,9.878554,0.039262,0.055438,-0.066603,-0.017879,0.016736,0.004768,0.301025,0.506348,-0.953125
388,-0.062751,-0.118258,9.7684,0.040382,0.073105,0.043727,-0.022374,0.009291,0.005179,0.296875,0.506104,-0.946289
389,-0.044445,-0.123381,9.782735,0.039775,0.092142,0.029588,-0.017603,0.014741,-0.000515,0.301025,0.5,-0.948242
390,-0.046393,-0.142865,9.821105,0.058625,0.096321,-0.008919,-0.018907,0.012506,0.006383,0.296875,0.50415,-0.950684
391,-0.072551,-0.11053,9.820909,0.03561,0.061766,-0.008853,-0.018652,0.012973,0.00212,0.301025,0.501953,-0.948486
392,-0.047739,-0.111151,9.744253,0.029537,0.084731,0.068097,-0.019469,0.014133,0.001514,0.298828,0.50415,-0.948486
393,-0.08264,-0.137021,9.825744,0.063884,0.060003,-0.013969,-0.018388,0.014622,0.005567,0.301025,0.5,-0.950684
394,-0.057327,-0.119289,9.83519,0.039316,0.079061,-0.022996,-0.019205,0.015781,0.004961,0.302979,0.506348,-0.946289
395,-0.045298,-0.111806,9.777659,0.029071,0.08782,0.034721,-0.022132,0.012223,0.001918,0.301025,0.501953,-0.955078
396,-0.066664,-0.128186,9.80163,0.050808,0.072297,0.010391,-0.015416,0.013259,0.006563,0.301025,0.501953,-0.943848
397,-0.048602,-0.133133,9.81598,0.050239,0.091323,-0.003763,-0.020279,0.015296,0.000899,0.298828,0.506348,-0.953125
398,-0.062154,-0.109229,9.796688,0.031312,0.071015,0.0155,-0.021867,0.013871,0.005361,0.298828,0.506348,-0.944092
399,-0.09032,-0.130822,9.787135,0.060275,0.050437,0.024577,-0.019715,0.013667,0.005758,0.298828,0.506348,-0.948486
400,-0.065555,-0.130872,9.834991,0.052475,0.074492,-0.022971,-0.017843,0.014279,0.003724,0.301025,0.50415,-0.946289
401,-0.05966,-0.109976,9.830101,0.030869,0.074072,-0.017883,-0.020273,0.015299,0.000889,0.296631,0.508301,-0.950928
402,-0.054954,-0.125095,9.777449,0.044247,0.082405,0.034731,-0.019175,0.013324,0.003923,0.296875,0.50415,-0.948486
403,-0.062337,-0.113862,9.830041,0.035241,0.072532,-0.01788,-0.020508,0.012368,0.004124,0.303223,0.502197,-0.946045
404,-0.090516,-0.13533,9.820449,0.064057,0.051762,-0.008766,-0.018655,0.015441,0.003111,0.296875,0.506104,-0.946289
405,-0.032044,-0.111223,9.786919,0.024198,0.10017,0.025626,-0.018615,0.010521,0.001069,0.294922,0.497803,-0.946045
406,-0.05348,-0.127737,9.810834,0.046,0.084601,0.001349,-0.020803,0.015646,0.002705,0.305176,0.50415,-0.946289
407,-0.107352,-0.132803,9.839445,0.066524,0.035115,-0.027952,-0.017836,0.014281,0.00371,0.302979,0.506348,-0.950684
408,-0.048903,-0.108735,9.805952,0.026483,0.083368,0.006401,-0.020502,0.01237,0.004112,0.301025,0.501953,-0.950684
409,-0.056807,-0.115613,9.772402,0.035739,0.077493,0.039809,-0.019167,0.013326,0.003908,0.301025,0.50415,-0.946289
410,-0.064329,-0.104317,9.825009,0.026678,0.067411,-0.012818,-0.017832,0.014282,0.003704,0.298828,0.50415,-0.948486
411,-0.033485,-0.117565,9.82028,0.030365,0.100881,-0.007788,-0.019443,0.014145,0.001472,0.294678,0.50415,-0.946289
412,-0.073716,-0.113062,9.791422,0.038038,0.06066,0.020597,-0.021313,0.013532,0.003497,0.298828,0.506348,-0.948486
413,-0.036103,-0.121629,9.820221,0.034756,0.09934,-0.007789,-0.020756,0.011896,0.008358,0.301025,0.50415,-0.946289
414,-0.050218,-0.115466,9.839303,0.032679,0.084022,-0.027009,-0.019976,0.014489,0.003292,0.301025,0.501953,-0.943848
415,-0.058261,-0.122324,9.80574,0.041897,0.078158,0.006412,-0.019975,0.01449,0.003289,0.298828,0.50415,-0.948486
416,-0.032772,-0.104688,9.815358,0.017365,0.097244,-0.002787,-0.018344,0.012167,0.004497,0.292969,0.497803,-0.946045
417,-0.0608,-0.125905,9.80568,0.046285,0.076662,0.00642,-0.016471,0.012782,0.002469,0.301025,0.501953,-0.948486
418,-0.067511,-0.096696,9.819998,0.020387,0.061593,-0.007805,-0.018619,0.012988,0.002062,0.302979,0.508545,-0.950928
419,-0.043318,-0.114852,9.781747,0.030983,0.089874,0.030632,-0.019451,0.016609,0.002475,0.296875,0.501953,-0.952881
420,-0.077829,-0.123344,9.824691,0.048679,0.059792,-0.012783,-0.021303,0.013536,0.003477,0.299072,0.501953,-0.948486
421,-0.046927,-0.136776,9.819976,0.052364,0.093265,-0.00777,-0.019691,0.013672,0.005707,0.303223,0.502197,-0.946045
422,-0.060393,-0.112585,9.800767,0.033342,0.07304,0.011416,-0.018632,0.015449,0.003074,0.301025,0.501953,-0.948486
423,-0.061751,-0.114394,9.800738,0.035605,0.072382,0.011419,-0.018337,0.012169,0.004482,0.298828,0.50415,-0.950684
424,-0.043578,-0.119497,9.815147,0.035013,0.091182,-0.002798,-0.018611,0.012991,0.002049,0.299072,0.501953,-0.952881
425,-0.052278,-0.14416,9.819843,0.061185,0.090257,-0.007748,-0.019687,0.013673,0.005698,0.296875,0.50415,-0.948486
426,-0.045398,-0.105314,9.776817,0.022384,0.084732,0.035591,-0.019147,0.013333,0.00387,0.301025,0.506348,-0.948486
427,-0.079821,-0.113746,9.819723,0.040281,0.054847,-0.007783,-0.019421,0.014155,0.001437,0.302979,0.506348,-0.946289
428,-0.068338,-0.123859,9.800579,0.046505,0.06849,0.011437,-0.021293,0.01354,0.003457,0.303223,0.502197,-0.946045
429,-0.068723,-0.107796,9.762285,0.031696,0.062935,0.049819,-0.018056,0.011349,0.0069,0.296875,0.499756,-0.946045
430,-0.070763,-0.127576,9.800514,0.050915,0.067008,0.011449,-0.018604,0.012994,0.002036,0.300781,0.508301,-0.953125
431,-0.045332,-0.1101,9.810238,0.026563,0.086274,0.002142,-0.022102,0.014705,0.002844,0.302979,0.506348,-0.946289
432,-0.072569,-0.113512,9.762193,0.03817,0.060608,0.049828,-0.017788,0.011832,0.002638,0.298828,0.50415,-0.948486
433,-0.061577,-0.123756,9.867539,0.043916,0.075157,-0.055436,-0.0186,0.012996,0.00203,0.301025,0.5,-0.950684
434,-0.068495,-0.112425,9.795697,0.035766,0.064263,0.016382,-0.020472,0.01238,0.004049,0.296875,0.501953,-0.948486
435,-0.070012,-0.114246,9.795665,0.038028,0.063605,0.016386,-0.016761,0.018529,0.002051,0.296875,0.506104,-0.948486
436,-0.058459,-0.106652,9.862773,0.026586,0.073031,-0.050529,-0.022343,0.011765,0.006064,0.301025,0.501953,-0.948486
437,-0.058797,-0.090622,9.824512,0.011722,0.0675,-0.01218,-0.018595,0.012998,0.002022,0.303223,0.502197,-0.946045
438,-0.061143,-0.128089,9.776459,0.048647,0.075748,0.035613,-0.019134,0.013337,0.003844,0.296875,0.506104,-0.950684
439,-0.048537,-0.10243,9.805353,0.020223,0.080522,0.007031,-0.019133,0.013338,0.003842,0.298828,0.50415,-0.948486
440,-0.062796,-0.096294,9.824433,0.01826,0.065143,-0.012185,-0.020483,0.01484,0.005057,0.300781,0.508301,-0.950928
441,-0.085543,-0.148561,9.800101,0.075119,0.058769,0.011551,-0.019403,0.014164,0.001406,0.300781,0.508301,-0.950928
442,-0.052739,-0.108226,9.805269,0.0267,0.078109,0.007027,-0.019401,0.014164,0.001404,0.302979,0.506348,-0.946289
443,-0.074308,-0.124778,9.828976,0.048813,0.062659,-0.01704,-0.017777,0.011837,0.002615,0.296875,0.5,-0.952881
444,-0.074639,-0.108518,9.790736,0.033757,0.05696,0.021289,-0.019667,0.013677,0.005655,0.299072,0.5,-0.950684
445,-0.064092,-0.136421,9.809803,0.057298,0.075646,0.002186,-0.015918,0.014913,0.001618,0.300781,0.508301,-0.950928
446,-0.069976,-0.089342,9.786062,0.014222,0.055735,0.026136,-0.022604,0.012594,0.003606,0.301025,0.501953,-0.950684
447,-0.06674,-0.140379,9.809729,0.0617,0.07412,0.002201,-0.019664,0.013678,0.005648,0.304932,0.510498,-0.950928
448,-0.079994,-0.116075,9.790607,0.042514,0.053939,0.021306,-0.018582,0.013004,0.001998,0.301025,0.501953,-0.950684
449,-0.048954,-0.12936,9.785956,0.0462,0.087423,0.026253,-0.019375,0.011712,0.000365,0.301025,0.50415,-0.950684
450,-0.063049,-0.12329,9.80503,0.044293,0.072066,0.007044,-0.020994,0.012723,0.005834,0.298828,0.50415,-0.952881
451,-0.044869,-0.128523,9.81949,0.043936,0.091038,-0.007226,-0.016687,0.011166,-0.001047,0.301025,0.50415,-0.948486
452,-0.051573,-0.116797,9.747684,0.035464,0.080245,0.064562,-0.019659,0.013679,0.005637,0.298828,0.50415,-0.946289
453,-0.061271,-0.142471,9.876707,0.061587,0.079808,-0.064723,-0.021785,0.012752,-0.002489,0.294922,0.501953,-0.948486
454,-0.047692,-0.116176,9.781224,0.033196,0.083842,0.031073,-0.019116,0.013342,0.00381,0.298828,0.50415,-0.948486
455,-0.009303,-0.106639,9.772025,0.012944,0.117637,0.040793,-0.018574,0.013007,0.001985,0.301025,0.506348,-0.941895
456,-0.024536,-0.118657,9.829272,0.028319,0.107088,-0.016707,-0.019384,0.014172,0.001375,0.301025,0.501953,-0.952881
457,-0.05268,-0.139975,9.819294,0.057127,0.086492,-0.007199,-0.019654,0.013679,0.005626,0.303223,0.49585,-0.946045
458,-0.060646,-0.146431,9.78565,0.065932,0.080578,0.026308,-0.018064,0.017585,0.002205,0.301025,0.506348,-0.948486
459,-0.067602,-0.117493,9.800176,0.040235,0.065709,0.011877,-0.020445,0.012389,0.003988,0.301025,0.506348,-0.950684
460,-0.050438,-0.141166,9.8528,0.057098,0.089261,-0.040683,-0.021236,0.011099,0.002354,0.301025,0.50415,-0.952881
461,-0.050642,-0.124954,9.81462,0.042021,0.083818,-0.002411,-0.019649,0.01368,0.005617,0.305176,0.5,-0.950439
462,-0.07137,-0.12339,9.800077,0.046763,0.063369,0.01189,-0.018314,0.014636,0.005425,0.301025,0.506348,-0.955322
463,-0.047071,-0.124116,9.848175,0.039876,0.087421,-0.035914,-0.019915,0.014512,0.003182,0.302979,0.50415,-0.952881
464,-0.067774,-0.122604,9.833628,0.044594,0.066931,-0.021609,-0.019105,0.013346,0.003787,0.301025,0.5,-0.950684
465,-0.087473,-0.102767,9.780946,0.03204,0.041888,0.030952,-0.018579,0.015468,0.002988,0.294678,0.506104,-0.948486
466,-0.075896,-0.112558,9.761812,0.038175,0.055552,0.050164,-0.018293,0.012181,0.004391,0.303223,0.502197,-0.948486
467,-0.071859,-0.128115,9.833529,0.05129,0.064736,-0.021591,-0.019369,0.01418,0.001351,0.299072,0.501953,-0.948486
468,-0.064803,-0.088971,9.790881,0.012081,0.059481,0.021375,-0.020176,0.015346,0.00074,0.299072,0.5,-0.948242
469,-0.054263,-0.117311,9.809866,0.035744,0.078108,0.002346,-0.022309,0.011772,0.005974,0.296875,0.50415,-0.948486
470,-0.077007,-0.152481,9.871528,0.075308,0.067135,-0.059803,-0.019365,0.014181,0.001344,0.292725,0.506104,-0.941895
471,-0.068814,-0.095007,9.790797,0.018753,0.057312,0.021373,-0.019905,0.014516,0.003164,0.296875,0.50415,-0.944092
472,-0.090563,-0.111734,9.814341,0.04084,0.041579,-0.002534,-0.018554,0.013016,0.001948,0.302979,0.506348,-0.953125
473,-0.085454,-0.10914,9.847943,0.036606,0.045987,-0.036056,-0.020429,0.012395,0.003954,0.296875,0.5,-0.952881
474,-0.061029,-0.126958,9.809706,0.046696,0.074199,0.002362,-0.018042,0.017594,0.002175,0.301025,0.50415,-0.948486
475,-0.081694,-0.125294,9.795136,0.051488,0.053932,0.016694,-0.01881,0.010061,0.005166,0.299072,0.497803,-0.943848
476,-0.063675,-0.130725,9.80964,0.051116,0.072725,0.002373,-0.021249,0.016018,0.004365,0.298828,0.508301,-0.946289
477,-0.07815,-0.12467,9.828705,0.049433,0.057518,-0.016826,-0.017479,0.014808,-0.000678,0.296631,0.510498,-0.94873
478,-0.085824,-0.131003,9.795026,0.057969,0.051577,0.016717,-0.020423,0.012396,0.003942,0.303223,0.502197,-0.950684
479,-0.060392,-0.113636,9.805103,0.033756,0.070859,0.007054,-0.019896,0.014519,0.003145,0.299072,0.501953,-0.950684
480,-0.049976,-0.141787,9.824047,0.057374,0.089285,-0.011936,-0.017753,0.014307,0.003567,0.302979,0.510498,-0.946533
481,-0.063152,-0.117258,9.805043,0.038182,0.069363,0.00706,-0.018543,0.01302,0.001929,0.301025,0.501953,-0.943848
482,-0.070758,-0.123624,9.771359,0.046702,0.063504,0.040608,-0.020683,0.013233,0.001503,0.301025,0.50415,-0.950684
483,-0.052606,-0.129125,9.785879,0.046462,0.082445,0.026272,-0.020402,0.009943,0.002903,0.301025,0.5,-0.948242
484,-0.061319,-0.153854,9.790252,0.072583,0.081272,0.021641,-0.018556,0.015476,0.00295,0.298828,0.50415,-0.946289
485,-0.054372,-0.097721,9.834172,0.016581,0.071789,-0.021844,-0.019609,0.011231,0.004535,0.301025,0.5,-0.943848
486,-0.056516,-0.134774,9.785781,0.053009,0.080148,0.026286,-0.018817,0.016314,0.000517,0.298828,0.50415,-0.946289
487,-0.064763,-0.124271,9.838505,0.044966,0.069966,-0.026464,-0.018552,0.015478,0.002944,0.302979,0.508545,-0.948486
488,-0.059546,-0.13848,9.785712,0.057366,0.078653,0.026299,-0.019885,0.014523,0.003125,0.298828,0.50415,-0.946289
489,-0.066368,-0.109684,9.800397,0.031749,0.063784,0.011711,-0.019868,0.012069,0.002095,0.298828,0.506348,-0.950684
490,-0.05579,-0.137805,9.819308,0.055375,0.082166,-0.007246,-0.016393,0.012811,0.002337,0.307129,0.50415,-0.946289
491,-0.042198,-0.094034,9.810541,0.009693,0.082212,0.001955,-0.022021,0.014738,0.002692,0.302979,0.506348,-0.944092
492,-0.063946,-0.111,9.833973,0.031874,0.066515,-0.021844,-0.019602,0.011233,0.004518,0.298828,0.50415,-0.948486
493,-0.032913,-0.124354,9.829419,0.035579,0.100009,-0.017,-0.019616,0.013687,0.005544,0.299072,0.5,-0.952881
494,-0.065346,-0.096292,9.795891,0.018678,0.060334,0.016309,-0.017738,0.014312,0.00354,0.296875,0.50415,-0.946289
495,-0.054979,-0.124499,9.814785,0.04247,0.078903,-0.002632,-0.019876,0.014527,0.00311,0.301025,0.506348,-0.946289
496,-0.037148,-0.129989,9.829331,0.042141,0.097645,-0.016998,-0.019875,0.014527,0.003107,0.296875,0.5,-0.952881
497,-0.063997,-0.132649,9.781043,0.053165,0.072385,0.030948,-0.01798,0.012699,7.6e-05,0.292725,0.50415,-0.950684
498,-0.057671,-0.111627,9.776682,0.031357,0.071848,0.035512,-0.019052,0.010905,0.002684,0.296875,0.50415,-0.952881
499,-0.053999,-0.127463,9.848339,0.044999,0.080843,-0.03619,-0.015065,0.016223,0.003168,0.298828,0.506348,-0.950684
500,-0.080888,-0.129913,9.80004,0.055868,0.055365,0.011768,-0.019088,0.012009,0.010386,0.299072,0.501953,-0.952881
501,-0.061639,-0.117002,9.776595,0.038004,0.069649,0.03552,-0.022797,0.013461,0.001028,0.301025,0.501953,-0.948486
502,-0.05803,-0.133194,9.84824,0.0516,0.078442,-0.036177,-0.017729,0.014315,0.003524,0.298828,0.506348,-0.953125
503,-0.072372,-0.127201,9.867301,0.050022,0.063199,-0.05537,-0.020395,0.012406,0.003882,0.298828,0.50415,-0.948486
504,-0.058157,-0.1,9.772201,0.020561,0.067654,0.040058,-0.020409,0.01486,0.004909,0.302979,0.506348,-0.953125
505,-0.054602,-0.116181,9.843844,0.034302,0.076613,-0.031636,-0.019059,0.013362,0.003698,0.300781,0.508301,-0.948486
506,-0.088431,-0.106621,9.848307,0.034977,0.0416,-0.036444,-0.019088,0.018269,0.005754,0.301025,0.50415,-0.950684
507,-0.07003,-0.128367,9.776396,0.051163,0.065117,0.035549,-0.016619,0.011208,-0.001153,0.300781,0.508301,-0.948486
508,-0.083535,-0.087294,9.84397,0.015379,0.040467,-0.031929,-0.019082,0.012008,0.010367,0.294678,0.506104,-0.950684
509,-0.059999,-0.123492,9.843724,0.043087,0.073583,-0.031625,-0.020102,0.012924,-0.00038,0.296875,0.50415,-0.950684
510,-0.07374,-0.133973,9.776293,0.057662,0.062716,0.035569,-0.019857,0.014535,0.003076,0.296875,0.501953,-0.946045
511,-0.061427,-0.108887,9.805697,0.029719,0.067422,0.00647,-0.02119,0.013581,0.003252,0.299072,0.5,-0.948242
512,-0.075908,-0.103098,9.824757,0.028065,0.051996,-0.012726,-0.020658,0.015706,0.002461,0.296875,0.501953,-0.950684
513,-0.090903,-0.132123,9.795269,0.060519,0.045974,0.0164,-0.019035,0.010913,0.00265,0.296875,0.50415,-0.944092
514,-0.065368,-0.114747,9.805605,0.036294,0.065072,0.006476,-0.019049,0.013366,0.003678,0.301025,0.5,-0.950684
515,-0.053674,-0.124455,9.786482,0.042365,0.079007,0.025677,-0.019306,0.01421,0.001247,0.305176,0.5,-0.950439
516,-0.062008,-0.114341,9.839249,0.034576,0.06858,-0.027122,-0.020107,0.015381,0.000634,0.298828,0.506348,-0.950684
517,-0.069604,-0.120501,9.805507,0.043006,0.062951,0.00649,-0.019591,0.013694,0.005489,0.299072,0.5,-0.943848
518,-0.064893,-0.118269,9.839184,0.038996,0.06708,-0.027116,-0.02065,0.015709,0.002447,0.301025,0.5,-0.94165
519,-0.053372,-0.128009,9.820061,0.045059,0.081018,-0.007915,-0.018512,0.015493,0.002879,0.299072,0.5,-0.946045
520,-0.079551,-0.095571,9.820283,0.021779,0.046453,-0.008249,-0.019042,0.013368,0.003664,0.296875,0.5,-0.948242
521,-0.016335,-0.120415,9.811332,0.026918,0.114122,0.001304,-0.021177,0.013585,0.003227,0.299072,0.501953,-0.943848
522,-0.070556,-0.126005,9.839049,0.047873,0.064134,-0.027096,-0.019296,0.014214,0.001231,0.296875,0.50415,-0.946289
523,-0.051283,-0.11291,9.815734,0.029911,0.078468,-0.003471,-0.020373,0.012415,0.003833,0.302979,0.50415,-0.948486
524,-0.039585,-0.122615,9.796617,0.035815,0.092247,0.015723,-0.018506,0.015496,0.002869,0.303223,0.5,-0.946045
525,-0.060218,-0.120838,9.781951,0.040409,0.072031,0.030153,-0.019583,0.013696,0.00547,0.298828,0.50415,-0.948486
526,-0.037569,-0.14096,9.868184,0.052055,0.100273,-0.055928,-0.019823,0.012091,0.002009,0.294678,0.50415,-0.952881
527,-0.037497,-0.124234,9.830253,0.036406,0.095061,-0.017895,-0.020382,0.014868,0.004854,0.298828,0.50415,-0.948486
528,-0.043618,-0.111498,9.758602,0.026704,0.084696,0.053755,-0.017153,0.014,0.001656,0.296875,0.50415,-0.952881
529,-0.040316,-0.12779,9.830197,0.040834,0.093516,-0.017893,-0.017698,0.014326,0.003471,0.296875,0.50415,-0.950684
530,-0.068349,-0.148852,9.819674,0.069325,0.072679,-0.007839,-0.020365,0.012418,0.003816,0.301025,0.50415,-0.948486
531,-0.041458,-0.113054,9.792251,0.027306,0.087433,0.020124,-0.023045,0.012961,0.005192,0.298828,0.506348,-0.950684
532,-0.075015,-0.103569,9.79666,0.027998,0.052419,0.015373,-0.016894,0.013155,0.004077,0.296875,0.506104,-0.950684
533,-0.057114,-0.109047,9.811282,0.027959,0.071308,0.000932,-0.020069,0.012943,-0.000436,0.301025,0.501953,-0.955078
534,-0.066049,-0.133712,9.815385,0.05414,0.070032,-0.003431,-0.016905,0.015606,0.005105,0.294678,0.506104,-0.948486
535,-0.046847,-0.120383,9.792139,0.036117,0.084399,0.020126,-0.019025,0.013374,0.003632,0.298828,0.50415,-0.952881
536,-0.055195,-0.110508,9.844936,0.028518,0.073812,-0.032705,-0.021159,0.013593,0.00319,0.301025,0.501953,-0.943848
537,-0.075746,-0.108736,9.830247,0.033073,0.053605,-0.018251,-0.017689,0.014329,0.003455,0.299072,0.5,-0.948242
538,-0.05647,-0.095436,9.807022,0.014936,0.067835,0.005284,-0.019022,0.013376,0.003625,0.298828,0.50415,-0.948486
539,-0.065485,-0.120168,9.8111,0.041221,0.066765,0.000947,-0.019287,0.016676,0.002227,0.302979,0.506348,-0.948486
540,-0.066866,-0.121993,9.811068,0.043347,0.065934,0.000951,-0.017967,0.011353,0.006661,0.298828,0.506348,-0.950684
541,-0.041356,-0.104696,9.821609,0.019319,0.085226,-0.009178,-0.020058,0.01295,-0.000454,0.302979,0.506348,-0.946289
542,-0.061974,-0.102928,9.806913,0.023699,0.064853,0.005282,-0.019283,0.016678,0.002221,0.299072,0.501953,-0.948486
543,-0.051892,-0.131404,9.825637,0.04773,0.083313,-0.013496,-0.019816,0.014551,0.003001,0.301025,0.501953,-0.948486
544,-0.066387,-0.125576,9.844686,0.046201,0.067853,-0.032681,-0.019015,0.013378,0.003612,0.303223,0.502197,-0.952881
545,-0.06618,-0.108582,9.806824,0.030388,0.062708,0.005286,-0.018467,0.013056,0.001794,0.298828,0.506348,-0.944092
546,-0.067553,-0.110484,9.806794,0.032524,0.061884,0.005288,-0.02036,0.014875,0.00481,0.298828,0.508301,-0.950928
547,-0.083641,-0.123473,9.863665,0.049204,0.051058,-0.05185,-0.017678,0.014333,0.003436,0.296631,0.508301,-0.948486
548,-0.051174,-0.117993,9.821412,0.034652,0.079874,-0.009181,-0.021633,0.012853,-0.002729,0.299072,0.501953,-0.950684
549,-0.058582,-0.123957,9.787618,0.042831,0.074321,0.024485,-0.018475,0.015508,0.002819,0.301025,0.501953,-0.946045
550,-0.061494,-0.144729,9.825394,0.063118,0.077962,-0.013453,-0.020343,0.012426,0.003767,0.298828,0.506348,-0.946289
551,-0.061221,-0.127778,9.787552,0.047249,0.072841,0.024495,-0.019008,0.01338,0.003596,0.298828,0.50415,-0.948486
552,-0.037393,-0.129394,9.835976,0.041258,0.096411,-0.023652,-0.019007,0.013381,0.003594,0.298828,0.50415,-0.952881
553,-0.077048,-0.12383,9.806564,0.047964,0.056691,0.00532,-0.019804,0.014556,0.002979,0.303223,0.5,-0.946045
554,-0.070895,-0.102774,9.802507,0.026093,0.056304,0.009581,-0.017122,0.014014,0.001607,0.294922,0.501953,-0.950684
555,-0.060711,-0.131085,9.821192,0.050182,0.074736,-0.009154,-0.01767,0.014336,0.00342,0.296875,0.50415,-0.948486
556,-0.054622,-0.109992,9.817146,0.028311,0.074294,-0.004905,-0.018467,0.015511,0.002805,0.301025,0.50415,-0.950684
557,-0.062119,-0.115824,9.78334,0.036427,0.068761,0.028774,-0.020049,0.015412,0.000542,0.299072,0.497803,-0.946045
558,-0.058994,-0.13282,9.854865,0.050951,0.077249,-0.042814,-0.02087,0.0103,0.004528,0.305176,0.502197,-0.948486
559,-0.058603,-0.115752,9.817057,0.035019,0.072153,-0.004899,-0.017117,0.014017,0.001598,0.296875,0.50415,-0.946289
560,-0.03972,-0.136808,9.745094,0.050264,0.09579,0.067152,-0.019011,0.015833,0.004611,0.299072,0.501953,-0.946045
561,-0.034883,-0.10032,9.827716,0.013199,0.090638,-0.015176,-0.019795,0.01456,0.002961,0.303223,0.502197,-0.946045
562,-0.055274,-0.098485,9.812983,0.017536,0.070321,-0.000678,-0.019532,0.011256,0.004352,0.30127,0.497803,-0.950439
563,-0.083212,-0.119486,9.802221,0.046026,0.049702,0.009619,-0.019243,0.014241,0.001143,0.296875,0.499756,-0.946045
564,-0.025526,-0.11386,9.808565,0.023443,0.103022,0.003997,-0.02221,0.011798,0.005713,0.299072,0.5,-0.950684
565,-0.066636,-0.127334,9.816862,0.048314,0.067743,-0.004874,-0.019541,0.013706,0.00538,0.298828,0.506348,-0.950684
566,-0.047298,-0.113934,9.793797,0.030044,0.081997,0.018503,-0.017356,0.014877,-0.000842,0.294922,0.501953,-0.948486
567,-0.048684,-0.115713,9.793769,0.032304,0.081337,0.018505,-0.01899,0.013387,0.003562,0.298828,0.50415,-0.950684
568,-0.045709,-0.132785,9.865273,0.046983,0.08972,-0.053065,-0.02057,0.01329,0.001297,0.301025,0.50415,-0.948486
569,-0.052848,-0.138622,9.831446,0.055018,0.084212,-0.019363,-0.019525,0.011258,0.004336,0.299072,0.497803,-0.939209
570,-0.058062,-0.090909,9.808818,0.011227,0.0648,0.003497,-0.017653,0.014342,0.003391,0.299072,0.501953,-0.952881
571,-0.080657,-0.142312,9.782856,0.067338,0.058413,0.02887,-0.019245,0.016695,0.002161,0.294678,0.506104,-0.948486
572,-0.068452,-0.117543,9.812691,0.039702,0.06282,-0.000664,-0.02061,0.009448,0.006919,0.299072,0.501953,-0.946045
573,-0.050494,-0.123391,9.827386,0.039822,0.081665,-0.015183,-0.021113,0.013613,0.003099,0.298828,0.50415,-0.946289
574,-0.050223,-0.106155,9.789639,0.023633,0.076459,0.022671,-0.015765,0.014979,0.001408,0.301025,0.501953,-0.948486
575,-0.051608,-0.107932,9.789613,0.025893,0.0758,0.022672,-0.020561,0.013295,0.001281,0.301025,0.50415,-0.946289
576,-0.060501,-0.132742,9.793487,0.052092,0.074544,0.018536,-0.01898,0.013391,0.003543,0.294678,0.506104,-0.950684
577,-0.0029,-0.126996,9.799956,0.029603,0.128019,0.012789,-0.019225,0.01425,0.001114,0.296875,0.501953,-0.950684
578,-0.063076,-0.102286,9.842404,0.023199,0.06359,-0.030217,-0.021119,0.016063,0.004122,0.298828,0.506348,-0.946289
579,-0.077949,-0.130993,9.812449,0.05521,0.057656,-0.000621,-0.020311,0.012438,0.003698,0.299072,0.501953,-0.948486
580,-0.071737,-0.110014,9.808532,0.033288,0.057275,0.0035,-0.018437,0.015523,0.002758,0.301025,0.506348,-0.948486
581,-0.04684,-0.127122,9.77036,0.042655,0.085984,0.041859,-0.020015,0.01543,0.00049,0.298828,0.50415,-0.950684
582,-0.055624,-0.117775,9.823211,0.035577,0.07527,-0.011034,-0.021653,0.013934,0.004888,0.300781,0.510498,-0.944092
583,-0.03627,-0.104467,9.800246,0.017326,0.089754,0.012243,-0.018434,0.015525,0.002751,0.298828,0.50415,-0.948486
584,-0.09077,-0.110107,9.827466,0.038499,0.039588,-0.01566,-0.018421,0.013077,0.001713,0.299072,0.5,-0.950684
585,-0.038957,-0.108076,9.800197,0.021683,0.088262,0.012239,-0.01842,0.013078,0.001711,0.301025,0.50415,-0.950684
586,-0.06701,-0.129033,9.789264,0.050018,0.067473,0.022704,-0.020866,0.015205,0.006529,0.302979,0.50415,-0.950684
587,-0.035805,-0.108091,9.833966,0.020504,0.09157,-0.021491,-0.016521,0.011268,-0.001302,0.296875,0.50415,-0.944092
588,-0.082754,-0.125113,9.808264,0.050882,0.051295,0.003542,-0.021095,0.01362,0.003061,0.302979,0.50415,-0.950684
589,-0.045884,-0.134949,9.837744,0.048986,0.089614,-0.025559,-0.022185,0.011805,0.005645,0.299072,0.501953,-0.946045
590,-0.058781,-0.110146,9.819124,0.029152,0.069778,-0.006939,-0.017334,0.017343,0.000152,0.303223,0.502197,-0.946045
591,-0.04704,-0.119702,9.800026,0.034934,0.083813,0.012238,-0.022977,0.012984,0.005024,0.296875,0.501953,-0.952881
592,-0.048452,-0.121833,9.799993,0.037105,0.082989,0.012239,-0.02055,0.015754,0.002277,0.298828,0.506348,-0.955322
593,-0.055518,-0.093311,9.815219,0.011786,0.068099,-0.002889,-0.018962,0.013398,0.003505,0.302979,0.50415,-0.946289
594,-0.05682,-0.095144,9.815194,0.013931,0.067263,-0.002892,-0.018409,0.013083,0.001692,0.298828,0.50415,-0.955078
595,-0.03911,-0.135109,9.780836,0.047274,0.09553,0.031421,-0.021385,0.010629,0.006244,0.296875,0.506104,-0.948486
596,-0.047799,-0.12584,9.833704,0.040378,0.084732,-0.02149,-0.01889,0.014811,-0.003164,0.298828,0.50415,-0.944092
597,-0.047539,-0.108642,9.796047,0.024112,0.079771,0.016277,-0.022199,0.016701,0.007699,0.298828,0.506348,-0.950684
598,-0.037572,-0.137407,9.814573,0.048274,0.097932,-0.002312,-0.018404,0.013085,0.001684,0.299072,0.501953,-0.943848
599,-0.076981,-0.131582,9.784985,0.054614,0.058309,0.026841,-0.021633,0.013941,0.004845,0.298828,0.506348,-0.950684
600,-0.040187,-0.141399,9.814506,0.052682,0.096436,-0.002304,-0.019735,0.012133,0.001836,0.301025,0.506348,-0.948486
601,-0.052969,-0.11648,9.795929,0.032897,0.076779,0.016279,-0.018411,0.015534,0.002716,0.299072,0.5,-0.948242
602,-0.073319,-0.11443,9.781116,0.037076,0.05648,0.030861,-0.019493,0.011269,0.004258,0.294922,0.501953,-0.950684
603,-0.044246,-0.147026,9.814406,0.059371,0.094285,-0.002287,-0.019201,0.016714,0.002096,0.301025,0.501953,-0.948486
604,-0.070321,-0.114796,9.814896,0.03602,0.059736,-0.002884,-0.023743,0.011722,0.003334,0.298828,0.506348,-0.948486
605,-0.071574,-0.116916,9.814862,0.038284,0.059073,-0.00288,-0.0195,0.013717,0.00529,0.301025,0.501953,-0.948486
606,-0.053806,-0.122731,9.82962,0.038422,0.077717,-0.017464,-0.019176,0.011824,1.3e-05,0.299072,0.501953,-0.950684
607,-0.055163,-0.124682,9.829588,0.04069,0.077053,-0.01746,-0.02053,0.015763,0.002244,0.298828,0.510498,-0.944092
608,-0.037643,-0.130507,9.84435,0.040813,0.095679,-0.03205,-0.018164,0.01467,0.005128,0.296875,0.50415,-0.952881
609,-0.056105,-0.109135,9.791949,0.026443,0.07129,0.020265,-0.019725,0.012139,0.001816,0.299072,0.501953,-0.948486
610,-0.078381,-0.126408,9.814693,0.049255,0.055217,-0.002853,-0.018953,0.015851,0.004508,0.302979,0.508545,-0.948486
611,-0.03235,-0.093988,9.802981,0.004796,0.089739,0.009614,-0.020285,0.014899,0.00466,0.299072,0.501953,-0.946045
612,-0.068111,-0.137732,9.795559,0.057085,0.068461,0.016329,-0.018398,0.01554,0.002694,0.298828,0.506348,-0.950684
613,-0.062003,-0.116715,9.791826,0.035255,0.068299,0.020271,-0.019968,0.015455,0.00042,0.294678,0.50415,-0.950684
614,-0.076573,-0.111236,9.810851,0.033972,0.052692,0.001107,-0.021367,0.010633,0.006192,0.298828,0.50415,-0.946289
615,-0.05881,-0.117199,9.825626,0.034263,0.071493,-0.013494,-0.019728,0.014588,0.002841,0.296875,0.499756,-0.943848
616,-0.065836,-0.122675,9.791728,0.041816,0.065941,0.020281,-0.019716,0.012143,0.001799,0.303223,0.502197,-0.950684
617,-0.029089,-0.132481,9.821317,0.040145,0.104203,-0.008932,-0.018934,0.013408,0.003453,0.294922,0.499756,-0.952881
618,-0.068407,-0.126417,9.791663,0.046276,0.06444,0.020291,-0.018933,0.013409,0.003451,0.299072,0.5,-0.946045
619,-0.062163,-0.105436,9.787965,0.02444,0.064284,0.024199,-0.020276,0.014902,0.004642,0.302979,0.50415,-0.946289
620,-0.050239,-0.114729,9.76888,0.029999,0.078229,0.043364,-0.016807,0.013182,0.003911,0.294922,0.499756,-0.943848
621,-0.040146,-0.109511,9.8366,0.021544,0.087009,-0.024196,-0.019947,0.013016,-0.000637,0.301025,0.501953,-0.948486
622,-0.068077,-0.130347,9.825401,0.049771,0.066225,-0.013464,-0.018929,0.013411,0.003443,0.302979,0.506348,-0.948486
623,-0.035202,-0.124208,9.783615,0.034729,0.095549,0.028749,-0.018148,0.014675,0.005098,0.299072,0.501953,-0.948486
624,-0.068832,-0.114636,9.787817,0.035419,0.060539,0.024209,-0.02026,0.012459,0.00359,0.294922,0.497803,-0.948242
625,-0.05882,-0.143476,9.806241,0.059841,0.078821,0.00572,-0.019715,0.014594,0.00282,0.301025,0.50415,-0.950684
626,-0.0506,-0.103169,9.765071,0.019148,0.074297,0.047242,-0.021602,0.013952,0.004777,0.301025,0.5,-0.946045
627,-0.072947,-0.120602,9.787715,0.042123,0.058381,0.024222,-0.019159,0.014285,0.001007,0.298828,0.50415,-0.944092
628,-0.055377,-0.12654,9.802512,0.042345,0.077035,0.009597,-0.020584,0.014344,0.008854,0.299072,0.5,-0.950684
629,-0.075698,-0.124523,9.787645,0.046528,0.056924,0.024233,-0.019935,0.013024,-0.000655,0.298828,0.50415,-0.944092
630,-0.037166,-0.114972,9.77979,0.026035,0.090815,0.032607,-0.018929,0.015859,0.004467,0.302979,0.50415,-0.946289
631,-0.065375,-0.10201,9.817865,0.021566,0.060652,-0.005714,-0.020497,0.015779,0.002189,0.302979,0.50415,-0.946289
632,-0.061096,-0.134457,9.802372,0.051164,0.074107,0.009616,-0.022374,0.012693,0.003102,0.301025,0.506348,-0.946289
633,-0.049153,-0.11019,9.832643,0.024057,0.078652,-0.020352,-0.019705,0.014598,0.002801,0.298828,0.50415,-0.948486
634,-0.080731,-0.115096,9.749983,0.038602,0.049004,0.061891,-0.022926,0.013003,0.004905,0.301025,0.501953,-0.946045
635,-0.038433,-0.121835,9.813531,0.03181,0.091917,-0.001193,-0.020247,0.012465,0.003563,0.298828,0.50415,-0.946289
636,-0.053031,-0.116301,9.832552,0.030616,0.07635,-0.020352,-0.018358,0.013109,0.001605,0.301025,0.501953,-0.948486
637,-0.065582,-0.124948,9.764728,0.043346,0.066324,0.047262,-0.019466,0.013727,0.005218,0.298828,0.50415,-0.950684
638,-0.061465,-0.123443,9.798592,0.040283,0.070178,0.013459,-0.019153,0.016737,0.002025,0.296875,0.50415,-0.946289
639,-0.076248,-0.117955,9.817608,0.039209,0.054754,-0.005694,-0.020243,0.012466,0.003553,0.301025,0.506348,-0.953125
640,-0.045233,-0.131431,9.813378,0.042811,0.088104,-0.001186,-0.02103,0.01365,0.002934,0.302979,0.50415,-0.955078
641,-0.071182,-0.132778,9.764585,0.052147,0.063332,0.047285,-0.02025,0.014911,0.004591,0.301025,0.501953,-0.948486
642,-0.05591,-0.124504,9.866265,0.038743,0.076525,-0.054148,-0.016794,0.015633,0.004912,0.298828,0.506348,-0.950684
643,-0.060712,-0.110256,9.794891,0.027271,0.067054,0.017255,-0.022906,0.010564,0.003837,0.303223,0.502197,-0.943848
644,-0.062,-0.112198,9.794861,0.029408,0.066247,0.017256,-0.016791,0.015634,0.004909,0.299072,0.501953,-0.948486
645,-0.065593,-0.133433,9.832259,0.050616,0.069714,-0.020318,-0.017245,0.014943,-0.000985,0.299072,0.501953,-0.946045
646,-0.07253,-0.138635,9.798314,0.057952,0.064234,0.013507,-0.020791,0.012778,0.005343,0.294678,0.50415,-0.946289
647,-0.047172,-0.121719,9.809636,0.034245,0.083536,0.002598,-0.018669,0.012547,0.005813,0.296875,0.50415,-0.946289
648,-0.067395,-0.119594,9.794738,0.038235,0.06325,0.017267,-0.021019,0.013655,0.002914,0.298828,0.50415,-0.950684
649,-0.068652,-0.121482,9.794706,0.040494,0.062588,0.017271,-0.017555,0.011933,0.002196,0.301025,0.501953,-0.946045
650,-0.051084,-0.127418,9.809544,0.040817,0.081196,0.002603,-0.02047,0.015793,0.002146,0.298828,0.50415,-0.948486
651,-0.057996,-0.132581,9.775595,0.048202,0.075885,0.036435,-0.017553,0.011934,0.002192,0.298828,0.50415,-0.946289
652,-0.046001,-0.108128,9.806003,0.021104,0.080241,0.006332,-0.018339,0.013119,0.001572,0.301025,0.50415,-0.948486
653,-0.014893,-0.121513,9.801808,0.024822,0.113783,0.010806,-0.021005,0.011215,0.001859,0.296875,0.501953,-0.952881
654,-0.075022,-0.130864,9.794538,0.05149,0.058771,0.017299,-0.019449,0.013732,0.005181,0.296875,0.501953,-0.950684
655,-0.049759,-0.113916,9.805919,0.027807,0.078074,0.006331,-0.018891,0.013427,0.003372,0.302979,0.50415,-0.948486
656,-0.064456,-0.1083,9.824934,0.026707,0.062464,-0.01282,-0.016771,0.013195,0.003845,0.299072,0.501953,-0.948486
657,-0.038999,-0.124872,9.786821,0.035506,0.091372,0.025483,-0.021009,0.01366,0.002893,0.294922,0.499756,-0.948242
658,-0.042645,-0.146393,9.824165,0.056754,0.09462,-0.012042,-0.017007,0.016517,0.002461,0.294678,0.50415,-0.948486
659,-0.055297,-0.121199,9.805802,0.036694,0.075084,0.006337,-0.020221,0.012476,0.003507,0.298828,0.506348,-0.948486
660,-0.029966,-0.104204,9.817224,0.01291,0.094185,-0.004676,-0.016767,0.013196,0.003838,0.296631,0.508301,-0.948486
661,-0.057876,-0.124938,9.80574,0.041099,0.073557,0.006343,-0.022566,0.01359,0.000602,0.303223,0.502197,-0.948486
662,-0.056969,-0.107343,9.768348,0.024142,0.068657,0.043855,-0.020217,0.012478,0.0035,0.301025,0.506348,-0.948486
663,-0.041588,-0.133107,9.820566,0.043714,0.091477,-0.008345,-0.019668,0.014616,0.002737,0.296875,0.5,-0.948242
664,-0.040798,-0.115424,9.783183,0.026769,0.086583,0.029158,-0.021557,0.013969,0.004682,0.296875,0.501953,-0.950684
665,-0.050048,-0.106836,9.83613,0.020778,0.07574,-0.023837,-0.018323,0.013127,0.001546,0.299072,0.501953,-0.952881
666,-0.062254,-0.11492,9.768229,0.032996,0.065661,0.04386,-0.015976,0.012013,0.004446,0.299072,0.501953,-0.948486
667,-0.052556,-0.110485,9.836077,0.025254,0.07422,-0.023838,-0.024001,0.013627,0.008425,0.296875,0.506104,-0.946289
668,-0.067049,-0.138667,9.805497,0.056535,0.068215,0.006381,-0.01832,0.013129,0.001541,0.299072,0.501953,-0.950684
669,-0.04714,-0.124839,9.783039,0.037881,0.082912,0.029163,-0.017864,0.011366,0.006386,0.299072,0.5,-0.948242
670,-0.064065,-0.139181,9.83937,0.056019,0.07133,-0.027458,-0.021219,0.014551,0.000439,0.294922,0.501953,-0.943848
671,-0.076685,-0.114122,9.821049,0.035904,0.05182,-0.009122,-0.019658,0.014621,0.00272,0.301025,0.501953,-0.946045
672,-0.064584,-0.123282,9.80198,0.041273,0.065812,0.010027,-0.018088,0.012249,0.003956,0.301025,0.501953,-0.948486
673,-0.046995,-0.129378,9.816858,0.041787,0.084552,-0.004683,-0.021546,0.013974,0.00466,0.301025,0.5,-0.946045
674,-0.075188,-0.116726,9.854898,0.037569,0.054143,-0.042968,-0.018312,0.013133,0.001529,0.294922,0.499756,-0.943848
675,-0.074002,-0.132067,9.76793,0.052907,0.059108,0.043906,-0.017535,0.014388,0.003192,0.296875,0.506104,-0.946289
676,-0.062138,-0.108023,9.798496,0.02598,0.063419,0.013638,-0.023652,0.011769,0.003127,0.301025,0.506348,-0.950684
677,-0.05235,-0.137224,9.816725,0.050649,0.081593,-0.004666,-0.019432,0.016182,0.006176,0.304932,0.508545,-0.946289
678,-0.085997,-0.127637,9.820805,0.051303,0.046573,-0.00908,-0.018858,0.010997,0.002279,0.301025,0.501953,-0.950684
679,-0.047183,-0.118027,9.813326,0.03088,0.080688,-0.001082,-0.018864,0.013439,0.003323,0.299072,0.501953,-0.948486
680,-0.053853,-0.122915,9.779342,0.037963,0.075294,0.032788,-0.017522,0.01195,0.002137,0.296875,0.501953,-0.948486
681,-0.068513,-0.117503,9.798345,0.037045,0.059814,0.013651,-0.020754,0.01279,0.00526,0.298828,0.50415,-0.948486
682,-0.077894,-0.109113,9.851304,0.031161,0.048728,-0.039359,-0.019644,0.014628,0.002697,0.301025,0.506348,-0.948486
683,-0.052219,-0.125544,9.813208,0.039763,0.077705,-0.001074,-0.018628,0.010115,0.004691,0.298828,0.50415,-0.948486
684,-0.077982,-0.093093,9.813975,0.016296,0.043238,-0.00193,-0.020975,0.013677,0.00283,0.299072,0.501953,-0.952881
685,-0.054918,-0.129357,9.813143,0.044167,0.076214,-0.001067,-0.017197,0.017418,-6e-06,0.294678,0.50415,-0.946289
686,-0.054034,-0.111419,9.775851,0.027046,0.07137,0.03635,-0.022082,0.011841,0.005385,0.299072,0.5,-0.952881
687,-0.057662,-0.133327,9.813074,0.04861,0.074694,-0.001057,-0.019638,0.01463,0.002686,0.296631,0.508301,-0.953125
688,-0.053652,-0.132243,9.847007,0.045963,0.078382,-0.034934,-0.020411,0.013378,0.001018,0.296875,0.501953,-0.948486
689,-0.039172,-0.121543,9.790698,0.032051,0.088569,0.02161,-0.018853,0.013443,0.003302,0.296875,0.50415,-0.950684
690,-0.056331,-0.136161,9.846938,0.050421,0.076858,-0.034925,-0.021526,0.013981,0.004619,0.302979,0.50415,-0.950684
691,-0.055266,-0.118103,9.809669,0.033349,0.072222,0.002475,-0.015954,0.01202,0.004403,0.298828,0.50415,-0.948486
692,-0.056531,-0.119912,9.809639,0.035507,0.071406,0.002476,-0.020965,0.013682,0.002811,0.294678,0.50415,-0.946289
693,-0.044492,-0.129154,9.790578,0.040899,0.085576,0.021616,-0.019853,0.015522,0.000251,0.298828,0.506348,-0.941895
694,-0.045882,-0.13114,9.790545,0.043012,0.084742,0.021618,-0.02074,0.012795,0.005229,0.294678,0.506104,-0.946289
695,-0.055327,-0.122895,9.843516,0.03737,0.073784,-0.031404,-0.019965,0.014047,0.006894,0.299072,0.501953,-0.950684
696,-0.048718,-0.135038,9.790478,0.047427,0.083227,0.021625,-0.019074,0.016776,0.001912,0.301025,0.50415,-0.946289
697,-0.055848,-0.106762,9.80624,0.022413,0.068314,0.005971,-0.019397,0.011308,0.004039,0.305176,0.506348,-0.950684
698,-0.040707,-0.132896,9.858373,0.042306,0.090843,-0.046156,-0.020183,0.014937,0.004465,0.298828,0.50415,-0.950684
699,-0.031607,-0.124989,9.768131,0.033023,0.096545,0.044239,-0.017508,0.0144,0.003147,0.299072,0.501953,-0.94165
700,-0.04638,-0.119779,9.787126,0.032064,0.080891,0.025105,-0.023622,0.011785,0.003058,0.299072,0.501953,-0.946045
701,-0.037074,-0.115834,9.855065,0.024857,0.089285,-0.042692,-0.016732,0.015652,0.004812,0.301025,0.501953,-0.948486
702,-0.04328,-0.153634,9.771246,0.063745,0.09368,0.040794,-0.018832,0.011011,0.002226,0.298828,0.50415,-0.948486
703,-0.063837,-0.118097,9.806061,0.035654,0.063919,0.00598,-0.018284,0.015592,0.002519,0.299072,0.501953,-0.946045
704,-0.04648,-0.124312,9.820993,0.036192,0.082469,-0.00879,-0.02151,0.013989,0.004584,0.298828,0.506348,-0.948486
705,-0.085452,-0.117751,9.791028,0.041692,0.043067,0.020762,-0.018835,0.013452,0.003268,0.298828,0.50415,-0.946289
706,-0.054435,-0.13108,9.78694,0.045289,0.076455,0.025122,-0.019174,0.01286,0.00749,0.303223,0.502197,-0.946045
707,-0.075155,-0.095699,9.821773,0.017227,0.046688,-0.009714,-0.020612,0.016724,-0.0004,0.298828,0.50415,-0.948486
708,-0.051968,-0.13207,9.820864,0.045019,0.079508,-0.008778,-0.019385,0.011313,0.004014,0.303223,0.502197,-0.946045
709,-0.072006,-0.129687,9.805858,0.048885,0.059478,0.006009,-0.01939,0.013753,0.005061,0.298828,0.50415,-0.946289
710,-0.054636,-0.135938,9.820797,0.049435,0.078051,-0.008768,-0.020729,0.015241,0.006239,0.298828,0.508301,-0.941895
711,-0.061863,-0.107694,9.836629,0.024469,0.063133,-0.024493,-0.017494,0.014407,0.003125,0.302979,0.50415,-0.948486
712,-0.089857,-0.128184,9.824769,0.052338,0.042359,-0.013098,-0.020166,0.014944,0.004433,0.298828,0.508301,-0.946289
713,-0.032353,-0.123001,9.83253,0.030318,0.095885,-0.020151,-0.020159,0.012506,0.003381,0.301025,0.501953,-0.950684
714,-0.084914,-0.109175,9.821553,0.032575,0.041476,-0.009698,-0.019609,0.017087,0.003677,0.294922,0.501953,-0.950684
715,-0.041041,-0.096802,9.848357,0.007517,0.080141,-0.035902,-0.020157,0.012507,0.003376,0.296875,0.50415,-0.955078
716,-0.074111,-0.120099,9.802469,0.04009,0.05479,0.009437,-0.01671,0.013219,0.003736,0.301025,0.50415,-0.944092
717,-0.083281,-0.144826,9.805557,0.066523,0.053511,0.006079,-0.019817,0.015544,0.000199,0.298828,0.50415,-0.946289
718,-0.063952,-0.098103,9.833292,0.015706,0.058427,-0.021116,-0.020932,0.0137,0.002748,0.302979,0.506348,-0.946289
719,-0.078351,-0.125869,9.802364,0.04674,0.052659,0.009455,-0.019597,0.014651,0.002617,0.301025,0.501953,-0.943848
720,-0.060972,-0.1321,9.817322,0.047311,0.071234,-0.00534,-0.019379,0.013757,0.005036,0.299072,0.501953,-0.952881
721,-0.059873,-0.113803,9.780179,0.029974,0.066707,0.031937,-0.0177,0.015307,0.000684,0.299072,0.501953,-0.948486
722,-0.056069,-0.112797,9.814161,0.027597,0.070357,-0.001991,-0.019377,0.013758,0.005031,0.296875,0.506104,-0.950684
723,-0.065217,-0.13762,9.817219,0.054037,0.06907,-0.005321,-0.019031,0.014357,0.000808,0.298828,0.50415,-0.950684
724,-0.071815,-0.142383,9.783167,0.060754,0.063733,0.028617,-0.020925,0.013703,0.002733,0.299072,0.501953,-0.950684
725,-0.046691,-0.125644,9.795056,0.037297,0.083043,0.017137,-0.017133,0.015013,-0.001123,0.300781,0.508301,-0.946289
726,-0.053737,-0.097448,9.810967,0.012251,0.067968,0.001332,-0.021263,0.010666,0.005899,0.302979,0.50415,-0.950684
727,-0.057442,-0.119636,9.848024,0.034164,0.071141,-0.035915,-0.020144,0.012513,0.003348,0.301025,0.501953,-0.948486
728,-0.050427,-0.131493,9.794961,0.043867,0.080756,0.017145,-0.019586,0.014656,0.002597,0.299072,0.501953,-0.950684
729,-0.051866,-0.13341,9.794928,0.046125,0.080092,0.01715,-0.019585,0.014657,0.002595,0.299072,0.501953,-0.946045
730,-0.026884,-0.116715,9.806857,0.02261,0.09925,0.005628,-0.019027,0.0168,0.001844,0.294678,0.50415,-0.952881
731,-0.05464,-0.137271,9.794859,0.050563,0.078611,0.01716,-0.021253,0.00823,0.004835,0.298828,0.506348,-0.948486
732,-0.055812,-0.139203,9.794825,0.052725,0.077737,0.017164,-0.018248,0.015609,0.002463,0.301025,0.50415,-0.948486
733,-0.044206,-0.115566,9.825783,0.026317,0.082161,-0.013496,-0.023581,0.011808,0.002963,0.301025,0.501953,-0.950684
734,-0.013181,-0.12906,9.821761,0.02998,0.115579,-0.009205,-0.017469,0.014418,0.003081,0.302979,0.508545,-0.948486
735,-0.073349,-0.137919,9.813726,0.056438,0.060709,-0.001932,-0.018587,0.012569,0.005626,0.299072,0.501953,-0.948486
736,-0.034549,-0.128389,9.806687,0.035879,0.094762,0.005623,-0.02091,0.013711,0.002705,0.297119,0.497803,-0.948242
737,-0.046801,-0.102996,9.788624,0.015435,0.075404,0.023712,-0.018585,0.01257,0.005622,0.298828,0.506348,-0.948486
738,-0.045565,-0.122382,9.859667,0.032917,0.082813,-0.047441,-0.01936,0.013764,0.004997,0.299072,0.501953,-0.950684
739,-0.057263,-0.129596,9.791571,0.04406,0.073268,0.020465,-0.017463,0.014421,0.003072,0.301025,0.506348,-0.948486
740,-0.053497,-0.128779,9.825572,0.041793,0.076879,-0.013485,-0.020905,0.013714,0.002696,0.301025,0.506348,-0.948486
741,-0.068323,-0.123593,9.844546,0.041104,0.061314,-0.032595,-0.017806,0.011378,0.006236,0.301025,0.501953,-0.948486
742,-0.07981,-0.130802,9.776441,0.052087,0.05164,0.035321,-0.019777,0.013128,-0.000905,0.301025,0.506348,-0.950684
743,-0.054613,-0.114172,9.78846,0.028692,0.070957,0.023709,-0.019355,0.013765,0.004987,0.299072,0.501953,-0.948486
744,-0.045751,-0.110741,9.856508,0.02206,0.078987,-0.044208,-0.019566,0.014666,0.002564,0.302979,0.50415,-0.948486
745,-0.070929,-0.11084,9.807404,0.030167,0.054567,0.004599,-0.018015,0.01228,0.003807,0.301025,0.506348,-0.946289
746,-0.050879,-0.096829,9.785409,0.01104,0.069332,0.026919,-0.020127,0.01496,0.004357,0.301025,0.5,-0.948242
747,-0.068478,-0.111901,9.841385,0.030185,0.057525,-0.029357,-0.01745,0.011988,0.002005,0.296875,0.501953,-0.950684
748,-0.088461,-0.109364,9.826313,0.03383,0.037379,-0.014503,-0.020895,0.013719,0.002678,0.301025,0.506348,-0.946289
749,-0.073611,-0.098028,9.770287,0.019179,0.047865,0.041768,-0.018227,0.01562,0.002431,0.296875,0.50415,-0.944092
750,-0.066783,-0.147626,9.825226,0.063909,0.069462,-0.013421,-0.020681,0.012818,0.005093,0.294678,0.508301,-0.948486
751,-0.066098,-0.096611,9.838322,0.014862,0.055208,-0.026165,-0.018783,0.013477,0.003172,0.298828,0.50415,-0.948486
752,-0.093943,-0.117073,9.826173,0.04262,0.034357,-0.01448,-0.02089,0.013721,0.002668,0.298828,0.50415,-0.948486
753,-0.062901,-0.130544,9.822186,0.046382,0.067921,-0.010224,-0.019551,0.012236,0.001492,0.303223,0.49585,-0.952637
754,-0.069927,-0.102394,9.838237,0.021497,0.052875,-0.026166,-0.018006,0.012283,0.003789,0.301025,0.50415,-0.94165
755,-0.071178,-0.104398,9.838207,0.023764,0.052208,-0.026164,-0.022784,0.013065,0.004579,0.299072,0.501953,-0.943848
756,-0.045348,-0.120484,9.800177,0.031697,0.081261,0.012053,-0.018218,0.015624,0.002419,0.301025,0.506348,-0.946289
757,-0.060414,-0.115366,9.819145,0.031061,0.065677,-0.007052,-0.020884,0.013725,0.002657,0.296875,0.506104,-0.948486
758,-0.06969,-0.140366,9.822005,0.057391,0.064171,-0.010191,-0.020887,0.016161,0.003708,0.305176,0.50415,-0.948486
759,-0.023276,-0.107934,9.812253,0.012747,0.09908,0.000322,-0.019548,0.014676,0.002532,0.299072,0.501953,-0.943848
760,-0.034742,-0.114874,9.744112,0.02344,0.089528,0.068276,-0.017645,0.0129,-0.00044,0.305176,0.506348,-0.948486
761,-0.042376,-0.124965,9.868138,0.034222,0.086428,-0.055895,-0.019546,0.014677,0.002528,0.296875,0.5,-0.948242
762,-0.032327,-0.115914,9.77812,0.023585,0.092456,0.034292,-0.01687,0.011706,0.00018,0.301025,0.506348,-0.946289
763,-0.041322,-0.140675,9.780961,0.050044,0.091115,0.03118,-0.020104,0.012532,0.003266,0.298828,0.50415,-0.946289
764,-0.043406,-0.110183,9.831124,0.020853,0.080434,-0.018799,-0.020876,0.013728,0.00264,0.301025,0.5,-0.946045
765,-0.022413,-0.128824,9.759041,0.033082,0.105247,0.053394,-0.022,0.011874,0.005176,0.302979,0.506348,-0.948486
766,-0.058866,-0.139735,9.799849,0.053711,0.073926,0.012091,-0.018206,0.015629,0.0024,0.296875,0.50415,-0.946289
767,-0.012301,-0.107188,9.790206,0.009057,0.108859,0.022497,-0.020099,0.012535,0.003257,0.301025,0.50415,-0.946289
768,-0.021512,-0.132045,9.793021,0.035408,0.10736,0.019405,-0.018769,0.01592,0.004192,0.30127,0.497803,-0.94165
769,-0.036669,-0.126928,9.811985,0.034813,0.09176,0.000304,-0.019536,0.014682,0.002511,0.303223,0.502197,-0.946045
770,-0.059481,-0.144838,9.833773,0.058346,0.075396,-0.02187,-0.020096,0.012536,0.00325,0.302979,0.50415,-0.946289
771,-0.045087,-0.100824,9.828094,0.01219,0.076096,-0.015725,-0.018554,0.012579,0.00555,0.296875,0.501953,-0.943848
772,-0.040635,-0.132567,9.811894,0.041392,0.089553,0.000309,-0.018199,0.015633,0.002388,0.302979,0.50415,-0.946289
773,-0.058446,-0.147989,9.867738,0.060862,0.077618,-0.05584,-0.020861,0.0113,0.001564,0.296875,0.50415,-0.946289
774,-0.054031,-0.108983,9.79394,0.022915,0.069469,0.018265,-0.019323,0.013777,0.00492,0.299072,0.501953,-0.948486
775,-0.076873,-0.126932,9.8157,0.046557,0.053174,-0.00388,-0.020862,0.013736,0.002614,0.298828,0.50415,-0.948486
776,-0.07824,-0.129005,9.815662,0.048732,0.052348,-0.003873,-0.021426,0.014025,0.004407,0.301025,0.5,-0.952881
777,-0.07177,-0.108017,9.812837,0.026778,0.052371,-0.00083,-0.018755,0.01349,0.003119,0.296631,0.508301,-0.946289
778,-0.062348,-0.137406,9.830679,0.05185,0.070132,-0.018763,-0.02009,0.014976,0.004287,0.298828,0.50415,-0.950684
779,-0.060824,-0.118641,9.793788,0.034021,0.065814,0.018272,-0.015877,0.012047,0.004248,0.300781,0.508301,-0.946289
780,-0.076007,-0.113557,9.812743,0.03334,0.050034,-0.000822,-0.022401,0.018568,0.00241,0.301025,0.501953,-0.950684
781,-0.069652,-0.092566,9.809942,0.011383,0.050065,0.002195,-0.017774,0.011385,0.006153,0.296875,0.501953,-0.94165
782,-0.065124,-0.124313,9.79369,0.040575,0.063513,0.018282,-0.019725,0.0156,6.4e-05,0.296875,0.506104,-0.948486
783,-0.093985,-0.112339,9.831625,0.037234,0.032942,-0.019903,-0.019519,0.014691,0.002481,0.301025,0.506348,-0.948486
784,-0.081579,-0.121189,9.812607,0.042167,0.047051,-0.000803,-0.01931,0.011347,0.003842,0.294678,0.506104,-0.948486
785,-0.061392,-0.10711,9.790844,0.023,0.062042,0.021289,-0.020287,0.01589,0.001853,0.301025,0.50415,-0.946289
786,-0.084378,-0.125069,9.812534,0.046571,0.04554,-0.00079,-0.019311,0.013782,0.004894,0.298828,0.506348,-0.948486
787,-0.054279,-0.106224,9.858963,0.019276,0.069185,-0.046736,-0.020077,0.012546,0.00321,0.301025,0.50415,-0.946289
788,-0.071294,-0.083082,9.807007,0.002524,0.045468,0.005175,-0.020846,0.013745,0.002583,0.305176,0.50415,-0.950684
789,-0.074588,-0.137919,9.79344,0.056006,0.058344,0.018326,-0.019712,0.013173,-0.001007,0.296875,0.50415,-0.948486
790,-0.063303,-0.114497,9.824781,0.029909,0.06256,-0.01272,-0.018947,0.016842,0.001729,0.300781,0.508301,-0.950928
791,-0.032407,-0.127878,9.820883,0.033688,0.096133,-0.008553,-0.019506,0.012262,0.001407,0.296875,0.501953,-0.943848
792,-0.060071,-0.148179,9.808442,0.061311,0.07531,0.003423,-0.019505,0.012262,0.001405,0.296875,0.50415,-0.950684
793,-0.045653,-0.104204,9.803007,0.015121,0.076073,0.009327,-0.020273,0.013461,0.000778,0.301025,0.50415,-0.946289
794,-0.036174,-0.133606,9.820793,0.040266,0.093802,-0.008551,-0.017603,0.012927,-0.000504,0.296875,0.501953,-0.950684
795,-0.07486,-0.12623,9.790522,0.045005,0.054585,0.021321,-0.018941,0.016845,0.00172,0.302979,0.506348,-0.941895
796,-0.039142,-0.137353,9.82073,0.044677,0.092326,-0.008546,-0.020837,0.013749,0.002565,0.301025,0.506348,-0.95752
797,-0.046378,-0.109459,9.836998,0.019961,0.077407,-0.024704,-0.019301,0.013785,0.00487,0.298828,0.506348,-0.944092
798,-0.046751,-0.143618,9.78656,0.05307,0.086511,0.025488,-0.021402,0.014035,0.004353,0.296875,0.506104,-0.948486
799,-0.021655,-0.127215,9.798987,0.029876,0.105839,0.013468,-0.018731,0.013501,0.003073,0.299072,0.5,-0.952881
800,-0.0319,-0.119913,9.85204,0.025373,0.094312,-0.03965,-0.019499,0.014701,0.002445,0.296631,0.508301,-0.950928
801,-0.046022,-0.147067,9.82056,0.055821,0.088621,-0.008523,-0.019296,0.013787,0.004861,0.298828,0.50415,-0.952881
802,-0.044409,-0.128293,9.783768,0.037704,0.084185,0.028412,-0.019863,0.014072,0.006652,0.298828,0.508301,-0.950928
803,-0.054598,-0.1211,9.836819,0.033294,0.072826,-0.024703,-0.02006,0.012555,0.003173,0.298828,0.506348,-0.946289
804,-0.034187,-0.106944,9.815177,0.013924,0.087689,-0.002731,-0.01929,0.011355,0.003797,0.299072,0.501953,-0.948486
805,-0.061955,-0.127201,9.802646,0.041609,0.067019,0.009337,-0.019693,0.01562,1.7e-05,0.298828,0.510498,-0.94873
806,-0.044813,-0.133735,9.817751,0.042561,0.085437,-0.005613,-0.019291,0.013789,0.004851,0.301025,0.50415,-0.946289
807,-0.06581,-0.098927,9.853042,0.015151,0.055542,-0.040903,-0.01929,0.013789,0.004849,0.301025,0.50415,-0.948486
808,-0.044747,-0.116858,9.780955,0.026636,0.080434,0.031299,-0.020826,0.018622,0.004654,0.299072,0.501953,-0.950684
809,-0.060028,-0.111995,9.799894,0.026177,0.064781,0.012218,-0.020053,0.012558,0.003159,0.298828,0.508301,-0.950928
810,-0.069063,-0.136887,9.802468,0.05258,0.063184,0.009365,-0.019284,0.011359,0.003783,0.299072,0.501953,-0.948486
811,-0.051875,-0.143402,9.81758,0.053674,0.081771,-0.00559,-0.018919,0.016858,0.001689,0.296875,0.506104,-0.950684
812,-0.077733,-0.11081,9.818772,0.030073,0.047427,-0.006857,-0.019282,0.01136,0.003778,0.298828,0.50415,-0.948486
813,-0.083813,-0.11495,9.78462,0.036187,0.042493,0.027192,-0.02042,0.014358,0.008419,0.298828,0.50415,-0.948486
814,-0.061853,-0.119337,9.833859,0.033349,0.065177,-0.021817,-0.018912,0.014428,0.000624,0.299072,0.497803,-0.952637
815,-0.081841,-0.116462,9.818673,0.036759,0.045253,-0.006845,-0.017379,0.014459,0.002933,0.296875,0.501953,-0.952881
816,-0.069523,-0.125134,9.799673,0.0417,0.059408,0.012238,-0.020047,0.014995,0.004203,0.301025,0.501953,-0.950684
817,-0.05822,-0.101958,9.831197,0.015895,0.063747,-0.018991,-0.020044,0.012563,0.003141,0.298828,0.508301,-0.955322
818,-0.072323,-0.129003,9.799602,0.046138,0.057887,0.012249,-0.018909,0.016863,0.001675,0.298828,0.50415,-0.946289
819,-0.065689,-0.107996,9.797014,0.024153,0.057978,0.01506,-0.021175,0.008265,0.004599,0.301025,0.501953,-0.943848
820,-0.04831,-0.114595,9.812147,0.025175,0.076433,8.3e-05,-0.01814,0.015663,0.002298,0.302979,0.506348,-0.950684
821,-0.076271,-0.13474,9.799495,0.052797,0.055755,0.01227,-0.019669,0.015635,-1.7e-05,0.301025,0.50415,-0.950684
822,-0.043372,-0.09553,9.809549,0.005355,0.075715,0.002871,-0.022137,0.012819,0.002608,0.301025,0.501953,-0.946045
823,-0.081759,-0.088235,9.779187,0.009835,0.036558,0.032833,-0.020234,0.013486,0.00071,0.303223,0.502197,-0.94165
824,-0.061679,-0.145421,9.814548,0.058249,0.072757,-0.00269,-0.017937,0.012313,0.003647,0.298828,0.50415,-0.950684
825,-0.073635,-0.11958,9.796823,0.037368,0.053612,0.015076,-0.019271,0.013797,0.00481,0.294678,0.506104,-0.953125
826,-0.038043,-0.130813,9.827134,0.037352,0.091213,-0.014896,-0.018329,0.016588,-0.000131,0.302979,0.50415,-0.94165
827,-0.062788,-0.130229,9.777792,0.044452,0.067072,0.034158,-0.022701,0.013103,0.004386,0.299072,0.501953,-0.948486
828,-0.032837,-0.111841,9.824566,0.017522,0.090532,-0.012137,-0.017738,0.011394,0.006056,0.301025,0.50415,-0.946289
829,-0.065315,-0.134104,9.777723,0.048844,0.065625,0.034169,-0.021187,0.015615,-0.002347,0.298828,0.506348,-0.946289
830,-0.035583,-0.115684,9.824512,0.021923,0.089047,-0.012142,-0.018127,0.013238,0.001218,0.301025,0.506348,-0.948486
831,-0.036912,-0.117595,9.824484,0.024185,0.088376,-0.012143,-0.020794,0.013773,0.002482,0.297119,0.497803,-0.948242
832,-0.047698,-0.123667,9.756176,0.033786,0.079125,0.05599,-0.018695,0.013519,0.003004,0.299072,0.501953,-0.950684
833,-0.007252,-0.13287,9.820655,0.030197,0.121139,-0.008075,-0.018694,0.01352,0.003002,0.301025,0.501953,-0.946045
834,-0.037821,-0.102349,9.787787,0.010272,0.08265,0.024647,-0.020027,0.015003,0.004164,0.298828,0.510498,-0.946533
835,-0.042442,-0.12518,9.824368,0.033096,0.085412,-0.012143,-0.018886,0.014444,0.000581,0.301025,0.50415,-0.946289
836,-0.022035,-0.111055,9.802922,0.013577,0.100389,0.009635,-0.023454,0.011879,0.002674,0.296875,0.50415,-0.944092
837,-0.031275,-0.136067,9.805348,0.040085,0.098934,0.006926,-0.01812,0.015673,0.002266,0.294922,0.501953,-0.955078
838,-0.024896,-0.114961,9.802871,0.018029,0.098854,0.009626,-0.020023,0.015005,0.004155,0.301025,0.501953,-0.957275
839,-0.058694,-0.105393,9.806603,0.018726,0.063932,0.005569,-0.019451,0.014726,0.002363,0.296875,0.506104,-0.946289
840,-0.054229,-0.137162,9.790054,0.047775,0.077323,0.021944,-0.022117,0.015261,0.003623,0.298828,0.50415,-0.946289
841,-0.069426,-0.132469,9.80897,0.04743,0.061624,0.002886,-0.020018,0.012576,0.003086,0.301025,0.501953,-0.946045
842,-0.038327,-0.145933,9.805181,0.051154,0.095077,0.00694,-0.020017,0.012577,0.003084,0.298828,0.506348,-0.950684
843,-0.045538,-0.118152,9.821681,0.026567,0.080166,-0.009446,-0.019631,0.013157,0.008977,0.298828,0.50415,-0.946289
844,-0.073239,-0.138142,9.808864,0.054003,0.059311,0.002905,-0.016585,0.013271,0.003507,0.302979,0.50415,-0.948486
845,-0.052926,-0.123682,9.787471,0.034588,0.074468,0.024637,-0.019635,0.015656,-6.6e-05,0.301025,0.50415,-0.950684
846,-0.081901,-0.112202,9.825337,0.031591,0.043598,-0.013484,-0.021153,0.010705,0.00559,0.299072,0.501953,-0.950684
847,-0.069254,-0.120889,9.806355,0.036428,0.057961,0.005581,-0.018678,0.013528,0.002974,0.302979,0.506348,-0.948486
848,-0.081145,-0.095059,9.788724,0.015344,0.038733,0.023254,-0.020581,0.012858,0.004859,0.298828,0.50415,-0.948486
849,-0.067193,-0.122757,9.840447,0.037285,0.060654,-0.028497,-0.018104,0.013252,0.001181,0.299072,0.5,-0.948242
850,-0.065207,-0.10352,9.803877,0.018788,0.056463,0.008228,-0.018483,0.012603,0.005384,0.296875,0.50415,-0.950684
851,-0.089775,-0.1025,9.754475,0.025589,0.032407,0.057348,-0.018865,0.016887,0.001613,0.299072,0.501953,-0.950684
852,-0.068044,-0.107215,9.803818,0.023243,0.054946,0.008229,-0.019243,0.011379,0.003689,0.296875,0.50415,-0.946289
853,-0.077278,-0.132021,9.806152,0.049759,0.053469,0.005614,-0.0181,0.015684,0.002237,0.296875,0.506104,-0.948486
854,-0.070763,-0.110909,9.803757,0.027648,0.053421,0.008232,-0.020003,0.012584,0.003057,0.298828,0.506348,-0.946289
855,-0.072105,-0.112841,9.803726,0.029904,0.05275,0.008235,-0.019431,0.014737,0.00233,0.298828,0.506348,-0.948486
856,-0.059568,-0.12145,9.78475,0.034579,0.06696,0.027293,-0.019429,0.012309,0.001264,0.296875,0.501953,-0.950684
857,-0.064149,-0.144498,9.821224,0.057587,0.069634,-0.009394,-0.020762,0.013791,0.002422,0.294678,0.50415,-0.946289
858,-0.068134,-0.095637,9.801292,0.012214,0.051194,0.010833,-0.018094,0.013258,0.001164,0.302979,0.50415,-0.948486
859,-0.055741,-0.104142,9.782322,0.017003,0.065575,0.029887,-0.018855,0.016893,0.001598,0.296875,0.506104,-0.950684
860,-0.052655,-0.104127,9.816462,0.015676,0.068899,-0.004214,-0.019236,0.013811,0.004735,0.296875,0.506104,-0.948486
861,-0.034261,-0.14239,9.780872,0.047254,0.097518,0.031319,-0.019613,0.015671,-9.9e-05,0.301025,0.506348,-0.948486
862,-0.041523,-0.114716,9.797465,0.022604,0.082441,0.014836,-0.021139,0.010711,0.00555,0.296875,0.5,-0.948242
863,-0.075102,-0.10509,9.801144,0.023276,0.047512,0.010835,-0.017328,0.014484,0.002846,0.296875,0.50415,-0.952881
864,-0.052064,-0.141444,9.799711,0.051338,0.080096,0.012279,-0.020754,0.013795,0.002406,0.296875,0.5,-0.950684
865,-0.02375,-0.104124,9.776144,0.007573,0.09613,0.036436,-0.019419,0.014744,0.002309,0.302979,0.50415,-0.946289
866,-0.042377,-0.120458,9.831523,0.02808,0.083578,-0.01927,-0.018657,0.013538,0.002935,0.296875,0.501953,-0.948486
867,-0.011444,-0.133866,9.827796,0.031925,0.117162,-0.015277,-0.01999,0.01502,0.004092,0.296875,0.50415,-0.950684
868,-0.05422,-0.128131,9.763108,0.039383,0.073789,0.048947,-0.023414,0.011903,0.002584,0.303223,0.502197,-0.946045
869,-0.024449,-0.110189,9.81022,0.013035,0.097267,0.002309,-0.017706,0.011402,0.005973,0.301025,0.5,-0.955078
870,-0.029156,-0.133192,9.846643,0.036116,0.09978,-0.034328,-0.019601,0.015679,-0.000117,0.298828,0.510498,-0.946533
871,-0.058117,-0.133822,9.763009,0.046082,0.071669,0.04896,-0.018652,0.013541,0.002925,0.298828,0.50415,-0.944092
872,-0.046939,-0.11093,9.794898,0.020518,0.07579,0.017363,-0.019984,0.012594,0.003016,0.298828,0.50415,-0.946289
873,-0.029859,-0.117747,9.810117,0.021875,0.094307,0.002296,-0.019983,0.015023,0.004079,0.299072,0.5,-0.950684
874,-0.053036,-0.136016,9.831269,0.045861,0.077584,-0.019252,-0.019408,0.012322,0.001225,0.303223,0.502197,-0.948486
875,-0.069441,-0.111927,9.779558,0.028106,0.054444,0.032434,-0.021127,0.015572,0.007648,0.298828,0.508301,-0.948486
876,-0.061916,-0.110177,9.847896,0.023534,0.061856,-0.035797,-0.015407,0.015165,0.000944,0.302979,0.50415,-0.948486
877,-0.06187,-0.143261,9.796982,0.055891,0.07131,0.014882,-0.019219,0.013818,0.004699,0.298828,0.506348,-0.948486
878,-0.055241,-0.122195,9.794721,0.033766,0.071336,0.017367,-0.019977,0.012598,0.003002,0.301025,0.501953,-0.950684
879,-0.052096,-0.122403,9.828876,0.032687,0.074767,-0.01675,-0.019976,0.015027,0.004066,0.301025,0.5,-0.946045
880,-0.076405,-0.121272,9.779395,0.039084,0.050699,0.032452,-0.021122,0.013146,0.00657,0.298828,0.506348,-0.946289
881,-0.04088,-0.132995,9.809883,0.03961,0.088387,0.002296,-0.01864,0.013548,0.002904,0.301025,0.5,-0.950684
882,-0.079044,-0.125033,9.779327,0.043504,0.049216,0.032463,-0.018639,0.013548,0.002903,0.298828,0.508301,-0.946289
883,-0.067963,-0.102401,9.811284,0.018176,0.053485,0.000796,-0.023784,0.013681,0.00781,0.296875,0.50415,-0.950684
884,-0.072749,-0.125648,9.847636,0.041304,0.055871,-0.035774,-0.016545,0.013289,0.003437,0.301025,0.501953,-0.950684
885,-0.070715,-0.106146,9.811225,0.022578,0.051956,0.000797,-0.019579,0.015694,-0.000147,0.298828,0.506348,-0.941895
886,-0.076529,-0.109849,9.776999,0.028004,0.047064,0.034925,-0.0213,0.011657,0.003074,0.298828,0.506348,-0.948486
887,-0.059313,-0.116777,9.792237,0.029417,0.065566,0.019838,-0.019966,0.012604,0.002982,0.302734,0.512695,-0.946533
888,-0.070091,-0.110408,9.845326,0.025808,0.053722,-0.033327,-0.019207,0.013824,0.004676,0.296875,0.501953,-0.952881
889,-0.09086,-0.087727,9.759466,0.011124,0.026575,0.052447,-0.018815,0.014489,0.000474,0.294922,0.501953,-0.946045
890,-0.077171,-0.115884,9.811066,0.03354,0.048108,0.000809,-0.020538,0.010451,0.003694,0.298828,0.50415,-0.946289
891,-0.059882,-0.122665,9.826311,0.03498,0.066603,-0.014284,-0.017297,0.012073,0.001729,0.30127,0.497803,-0.952637
892,-0.071727,-0.096615,9.808855,0.01373,0.047494,0.003219,-0.020718,0.016243,0.003409,0.298828,0.508301,-0.950928
893,-0.048689,-0.133,9.807325,0.041871,0.080223,0.004757,-0.017687,0.011408,0.005925,0.294922,0.501953,-0.946045
894,-0.063962,-0.128216,9.826215,0.041624,0.064263,-0.014273,-0.018991,0.015431,-0.001949,0.296875,0.501953,-0.946045
895,-0.075767,-0.102175,9.808769,0.020402,0.045288,0.00322,-0.019383,0.012338,0.00118,0.296875,0.506104,-0.946289
896,-0.026383,-0.120564,9.820386,0.023369,0.097877,-0.007959,-0.019956,0.015036,0.00403,0.303223,0.502197,-0.948486
897,-0.046173,-0.11751,9.805073,0.026421,0.07804,0.007147,-0.018623,0.013557,0.002873,0.301025,0.501953,-0.94165
898,-0.047445,-0.119373,9.805045,0.028579,0.077282,0.007147,-0.01938,0.01234,0.001174,0.302979,0.50415,-0.944092
899,-0.048698,-0.12143,9.805013,0.030835,0.076608,0.007149,-0.022619,0.013144,0.004198,0.298828,0.50415,-0.950684
900,-0.050115,-0.123497,9.80498,0.03299,0.07581,0.00715,-0.019558,0.015707,-0.000177,0.300781,0.508301,-0.946289
901,-0.055967,-0.126992,9.770741,0.038405,0.071086,0.041295,-0.019194,0.013829,0.004649,0.301025,0.501953,-0.948486
902,-0.052901,-0.127145,9.804919,0.03739,0.07433,0.007154,-0.016529,0.013296,0.003407,0.301025,0.50415,-0.952881
903,-0.03585,-0.133909,9.820183,0.038879,0.092811,-0.007959,-0.02013,0.013554,0.000533,0.294922,0.501953,-0.950684
904,-0.045137,-0.158799,9.822232,0.065383,0.091081,-0.010292,-0.018616,0.01356,0.002859,0.298828,0.50415,-0.946289
905,-0.030577,-0.114752,9.818046,0.019069,0.09216,-0.005626,-0.020704,0.013825,0.002313,0.296631,0.508301,-0.950928
906,-0.039834,-0.139735,9.820087,0.04551,0.090421,-0.007953,-0.019946,0.012615,0.00294,0.298828,0.50415,-0.948486
907,-0.055882,-0.115408,9.768475,0.027341,0.06744,0.043641,-0.02261,0.013149,0.004177,0.294678,0.50415,-0.952881
908,-0.065163,-0.140436,9.7705,0.053814,0.065693,0.04133,-0.019187,0.013832,0.004635,0.296875,0.5,-0.950684
909,-0.063822,-0.109704,9.855754,0.023223,0.058846,-0.043681,-0.019186,0.013833,0.004633,0.296875,0.501953,-0.948486
910,-0.052035,-0.098118,9.766336,0.009698,0.065954,0.045947,-0.017456,0.015452,0.000349,0.296875,0.506104,-0.953125
911,-0.052704,-0.11981,9.836785,0.030073,0.072447,-0.024655,-0.018608,0.013565,0.002845,0.303223,0.502197,-0.948486
912,-0.072464,-0.116704,9.821445,0.032993,0.052471,-0.009523,-0.019939,0.015045,0.003996,0.298828,0.510498,-0.94873
913,-0.027597,-0.1367,9.798905,0.039213,0.101188,0.013391,-0.019937,0.015045,0.003994,0.301025,0.50415,-0.946289
914,-0.067345,-0.097625,9.819353,0.01308,0.051854,-0.007236,-0.019937,0.01262,0.002922,0.301025,0.501953,-0.948486
915,-0.044297,-0.133963,9.81775,0.041255,0.084552,-0.005626,-0.017271,0.014514,0.002754,0.296875,0.50415,-0.950684
916,-0.069983,-0.101368,9.819297,0.017533,0.05035,-0.007237,-0.021844,0.011943,0.004783,0.301025,0.50415,-0.948486
917,-0.057307,-0.109698,9.800362,0.02212,0.064803,0.011783,-0.015359,0.015193,0.000885,0.296875,0.506104,-0.950684
918,-0.077068,-0.106368,9.785017,0.024983,0.044824,0.026924,-0.019177,0.013837,0.004613,0.301025,0.506348,-0.948486
919,-0.078367,-0.108279,9.784985,0.027232,0.04415,0.026927,-0.019932,0.012624,0.002911,0.298828,0.50415,-0.946289
920,-0.075384,-0.108627,9.819179,0.02636,0.047337,-0.007232,-0.017266,0.014516,0.002745,0.298828,0.506348,-0.950684
921,-0.056724,-0.146494,9.783327,0.057545,0.076025,0.028563,-0.021261,0.014104,0.004058,0.301025,0.501953,-0.946045
922,-0.059889,-0.117543,9.834438,0.030105,0.064978,-0.022375,-0.01935,0.014783,0.002192,0.302979,0.508545,-0.946289
923,-0.069362,-0.142519,9.836379,0.056661,0.063392,-0.024601,-0.02108,0.015585,0.007537,0.301025,0.50415,-0.950684
924,-0.067227,-0.122888,9.800143,0.037484,0.059496,0.011796,-0.018015,0.015731,0.002106,0.305176,0.506348,-0.950684
925,-0.076745,-0.147718,9.802072,0.064032,0.057905,0.009583,-0.019523,0.015731,-0.000228,0.296875,0.50415,-0.946289
926,-0.025552,-0.113767,9.828781,0.016273,0.097184,-0.016291,-0.019924,0.012628,0.002894,0.301025,0.501953,-0.950684
927,-0.071448,-0.128544,9.80004,0.044138,0.057329,0.01181,-0.018591,0.013575,0.002812,0.298828,0.50415,-0.950684
928,-0.064758,-0.107438,9.79806,0.022038,0.057426,0.014017,-0.019922,0.012629,0.00289,0.301025,0.50415,-0.944092
929,-0.069814,-0.130944,9.834203,0.045651,0.05981,-0.022347,-0.019342,0.014788,0.002177,0.299072,0.501953,-0.952881
930,-0.067481,-0.111263,9.797999,0.026469,0.055942,0.01402,-0.019518,0.013311,-0.001309,0.301025,0.506348,-0.948486
931,-0.064641,-0.111856,9.832201,0.0258,0.059242,-0.02015,-0.021073,0.015587,0.007518,0.294678,0.50415,-0.948486
932,-0.066066,-0.113774,9.83217,0.027964,0.05839,-0.020149,-0.018007,0.013312,0.00102,0.301025,0.50415,-0.946289
933,-0.071654,-0.11698,9.797903,0.03313,0.053738,0.014028,-0.019162,0.013844,0.004581,0.301025,0.5,-0.948242
934,-0.064543,-0.11606,9.866345,0.029512,0.060895,-0.054319,-0.01818,0.014261,-0.001396,0.305176,0.502197,-0.946045
935,-0.07441,-0.120711,9.797837,0.037559,0.052279,0.014036,-0.020667,0.013846,0.002243,0.301025,0.506348,-0.944092
936,-0.053656,-0.106046,9.777011,0.017651,0.067603,0.035204,-0.017829,0.012366,0.003425,0.301025,0.5,-0.950684
937,-0.076986,-0.124478,9.79777,0.041936,0.05084,0.014046,-0.020665,0.013848,0.002239,0.301025,0.50415,-0.950684
938,-0.033721,-0.113652,9.826544,0.01863,0.089206,-0.014149,-0.019912,0.012635,0.002868,0.300781,0.508301,-0.946289
939,-0.047176,-0.139941,9.79416,0.04805,0.083634,0.017889,-0.019911,0.012636,0.002866,0.298828,0.506348,-0.948486
940,-0.06676,-0.136903,9.778772,0.050764,0.063682,0.033069,-0.022167,0.013853,-0.000103,0.302979,0.50415,-0.950684
941,-0.037633,-0.119704,9.826458,0.025277,0.087012,-0.014154,-0.019154,0.013847,0.004565,0.299072,0.501953,-0.94165
942,-0.051156,-0.145739,9.794056,0.054578,0.081335,0.017903,-0.015912,0.01305,0.001556,0.298828,0.506348,-0.948486
943,-0.054356,-0.116801,9.845291,0.027455,0.070385,-0.033157,-0.020658,0.013852,0.002225,0.298828,0.506348,-0.953125
944,-0.045727,-0.126482,9.792129,0.03469,0.08074,0.020029,-0.019154,0.011424,0.003486,0.296875,0.5,-0.950684
945,-0.061035,-0.121914,9.810985,0.034701,0.064897,0.001031,-0.018572,0.013585,0.002777,0.302979,0.50415,-0.950684
946,-0.011698,-0.140446,9.82279,0.038017,0.117464,-0.010338,-0.019903,0.01264,0.002851,0.301025,0.50415,-0.952881
947,-0.049695,-0.132101,9.792035,0.041401,0.07857,0.020038,-0.01874,0.01696,0.001434,0.294678,0.506104,-0.950684
948,-0.057179,-0.10463,9.809051,0.017054,0.063486,0.003132,-0.020654,0.011432,0.001141,0.298828,0.510498,-0.950928
949,-0.066508,-0.129594,9.810851,0.043615,0.061852,0.001047,-0.01949,0.015753,-0.000275,0.302979,0.50415,-0.950684
950,-0.049942,-0.116183,9.75586,0.02645,0.073208,0.056319,-0.019728,0.01169,0.005254,0.301025,0.506348,-0.946289
951,-0.075212,-0.104105,9.827845,0.021488,0.046115,-0.015865,-0.020649,0.013857,0.002208,0.298828,0.506348,-0.950684
952,-0.058258,-0.111234,9.843184,0.023097,0.064382,-0.03106,-0.019897,0.012643,0.002837,0.298828,0.508301,-0.944092
953,-0.061889,-0.144997,9.757574,0.057373,0.070058,0.05426,-0.018561,0.016012,0.003834,0.296875,0.501953,-0.950684
954,-0.043053,-0.099549,9.78819,0.008162,0.075077,0.024188,-0.017985,0.010904,-9.4e-05,0.296875,0.50415,-0.950684
955,-0.052025,-0.145005,9.860265,0.053568,0.080297,-0.048308,-0.021394,0.015075,0.001567,0.302979,0.506348,-0.950684
956,-0.017506,-0.116082,9.750381,0.016998,0.103924,0.062168,-0.016478,0.01332,0.003314,0.296631,0.508301,-0.946289
957,-0.06928,-0.121691,9.808776,0.036937,0.05673,0.003145,-0.019137,0.016276,0.005606,0.298828,0.508301,-0.953125
958,-0.034107,-0.133949,9.839502,0.038066,0.094035,-0.027262,-0.020473,0.010486,0.003529,0.301025,0.5,-0.943848
959,-0.049681,-0.108942,9.788059,0.019213,0.07133,0.024175,-0.019137,0.013854,0.004528,0.299072,0.5,-0.948242
960,-0.050936,-0.110915,9.78803,0.021405,0.070558,0.024174,-0.021221,0.011703,0.002893,0.294678,0.50415,-0.94165
961,-0.037895,-0.139902,9.839405,0.044789,0.091894,-0.027254,-0.019884,0.015071,0.003892,0.298828,0.50415,-0.946289
962,-0.05349,-0.114944,9.78797,0.025787,0.06905,0.024174,-0.02139,0.010237,-0.000598,0.296875,0.5,-0.952881
963,-0.040637,-0.123373,9.769064,0.030217,0.083559,0.043164,-0.021043,0.015594,0.007446,0.301025,0.50415,-0.948486
964,-0.05618,-0.118852,9.787908,0.030248,0.067545,0.024176,-0.01647,0.013325,0.0033,0.299072,0.501953,-0.950684
965,-0.049307,-0.11834,9.856403,0.027194,0.074655,-0.044229,-0.020632,0.013868,0.002177,0.303223,0.502197,-0.948486
966,-0.062905,-0.144525,9.823841,0.056362,0.06898,-0.012015,-0.020628,0.016291,0.003249,0.303223,0.5,-0.946045
967,-0.066593,-0.095363,9.804953,0.010461,0.051185,0.007183,-0.020629,0.013869,0.002172,0.298828,0.506348,-0.950684
968,-0.090056,-0.114034,9.825518,0.034787,0.034206,-0.013783,-0.02046,0.012914,0.004581,0.301025,0.5,-0.943848
969,-0.058913,-0.127613,9.822007,0.038743,0.067803,-0.010015,-0.02121,0.011709,0.002871,0.296875,0.501953,-0.948486
970,-0.078364,-0.124332,9.806578,0.041394,0.047929,0.005213,-0.017964,0.01334,0.00095,0.298828,0.50415,-0.944092
971,-0.083717,-0.127306,9.772277,0.04625,0.043368,0.039428,-0.019876,0.012655,0.002796,0.296875,0.5,-0.948242
972,-0.054715,-0.110382,9.820207,0.02106,0.0665,-0.008045,-0.020623,0.013873,0.002161,0.298828,0.508301,-0.950928
973,-0.055869,-0.112389,9.820178,0.023316,0.065819,-0.008044,-0.020291,0.009537,0.005905,0.301025,0.50415,-0.948486
974,-0.073273,-0.139564,9.753298,0.054951,0.056244,0.058433,-0.020036,0.016037,0.001455,0.302979,0.50415,-0.948486
975,-0.06268,-0.138267,9.856067,0.049474,0.067174,-0.044196,-0.020616,0.016297,0.003231,0.296631,0.508301,-0.946289
976,-0.064243,-0.119368,9.785812,0.032432,0.059604,0.026172,-0.018538,0.013603,0.002716,0.303223,0.502197,-0.946045
977,-0.069684,-0.122296,9.751508,0.037236,0.055059,0.06039,-0.019285,0.014821,0.002081,0.301025,0.506348,-0.950684
978,-0.048949,-0.128297,9.801155,0.036415,0.077206,0.010942,-0.018533,0.016026,0.003788,0.303223,0.502197,-0.946045
979,-0.042218,-0.107105,9.799464,0.014349,0.077528,0.012864,-0.018372,0.010225,0.004044,0.299072,0.501953,-0.950684
980,-0.043522,-0.109014,9.799437,0.016538,0.076743,0.012861,-0.02061,0.0163,0.003219,0.298828,0.506348,-0.950684
981,-0.044885,-0.110885,9.79941,0.018789,0.076062,0.01286,-0.01762,0.011429,0.005749,0.296875,0.501953,-0.950684
982,-0.068402,-0.129304,9.81989,0.043189,0.058986,-0.00802,-0.017365,0.015511,0.000226,0.302979,0.50415,-0.944092
983,-0.039657,-0.091366,9.797718,-0.001085,0.075535,0.014754,-0.018696,0.014568,0.000292,0.296875,0.50415,-0.950684
984,-0.063357,-0.109901,9.818187,0.023286,0.0585,-0.006118,-0.018526,0.016029,0.003777,0.301025,0.501953,-0.950684
985,-0.050608,-0.118094,9.799298,0.027644,0.073035,0.012858,-0.020443,0.012923,0.004541,0.294678,0.50415,-0.946289
986,-0.043942,-0.09704,9.797645,0.005511,0.073213,0.014738,-0.019274,0.014828,0.002062,0.294922,0.501953,-0.946045
987,-0.013024,-0.110365,9.794187,0.009475,0.106814,0.018457,-0.017194,0.014555,0.002627,0.298828,0.508301,-0.946289
988,-0.036633,-0.128941,9.814631,0.033849,0.08973,-0.00239,-0.020604,0.013885,0.002124,0.298828,0.50415,-0.944092
989,-0.025858,-0.10689,9.847276,0.00932,0.093897,-0.03475,-0.01911,0.011448,0.003389,0.298828,0.506348,-0.948486
990,-0.043204,-0.133773,9.780288,0.040701,0.084387,0.031838,-0.019433,0.015792,-0.000356,0.294922,0.501953,-0.946045
991,-0.046894,-0.105519,9.831796,0.014097,0.073327,-0.019503,-0.021347,0.015106,0.001484,0.296875,0.50415,-0.948486
992,-0.056414,-0.130542,9.833355,0.040609,0.071454,-0.021352,-0.01985,0.015089,0.003826,0.305176,0.502197,-0.946045
993,-0.053765,-0.1104,9.797455,0.020974,0.067964,0.014721,-0.01852,0.013614,0.002681,0.301025,0.506348,-0.948486
994,-0.053068,-0.163536,9.816014,0.071418,0.084201,-0.004211,-0.019265,0.014834,0.002046,0.296875,0.501953,-0.952881
995,-0.024177,-0.12576,9.79398,0.027093,0.100795,0.018426,-0.021016,0.013184,0.006294,0.294922,0.501953,-0.948486
996,-0.057844,-0.116052,9.797366,0.027598,0.065647,0.014722,-0.016439,0.01334,0.003245,0.299072,0.5,-0.943848
997,-0.067218,-0.140939,9.798896,0.054172,0.063942,0.012905,-0.022087,0.013911,-0.000242,0.299072,0.5,-0.948242
998,-0.046482,-0.147318,9.848585,0.053642,0.086021,-0.036587,-0.019098,0.013873,0.004447,0.301025,0.506348,-0.948486
999,-0.061908,-0.121823,9.797271,0.034297,0.063501,0.014729,-0.019097,0.013874,0.004445,0.305176,0.502197,-0.946045
1000,-0.081422,-0.118382,9.781797,0.036771,0.043682,0.030002,-0.019096,0.013874,0.004443,0.302979,0.506348,-0.950684
1001,-0.02833,-0.136156,9.828095,0.038044,0.100137,-0.015807,-0.018511,0.013619,0.002665,0.296875,0.501953,-0.948486
1002,-0.039861,-0.109752,9.811086,0.016225,0.081295,0.001257,-0.020422,0.015351,0.00558,0.301025,0.501953,-0.950684
1003,-0.035157,-0.140893,9.793741,0.044842,0.094825,0.018432,-0.01867,0.014585,0.000252,0.301025,0.501953,-0.950684
1004,-0.060541,-0.108254,9.795584,0.021004,0.060769,0.01653,-0.020271,0.007128,0.004749,0.302979,0.506348,-0.946289
1005,-0.065825,-0.132288,9.831364,0.045245,0.06285,-0.019482,-0.019086,0.016297,0.005512,0.296631,0.508301,-0.950928
1006,-0.048846,-0.118289,9.776682,0.02741,0.074493,0.03549,-0.019677,0.011713,0.005127,0.303223,0.502197,-0.948486
1007,-0.050326,-0.141399,9.846746,0.049344,0.080353,-0.034751,-0.018504,0.013623,0.002654,0.296875,0.5,-0.950684
1008,-0.094082,-0.103428,9.833147,0.025803,0.027264,-0.021382,-0.020419,0.012935,0.004489,0.302979,0.506348,-0.950684
1009,-0.052662,-0.124048,9.776591,0.03411,0.072332,0.035495,-0.020418,0.012936,0.004486,0.298828,0.506348,-0.948486
1010,-0.082415,-0.113665,9.814238,0.032223,0.041,-0.002417,-0.021001,0.013191,0.006259,0.296875,0.501953,-0.948486
1011,-0.057604,-0.097959,9.828179,0.009871,0.060396,-0.015958,-0.018659,0.014593,0.000238,0.298828,0.506348,-0.946289
1012,-0.070969,-0.123711,9.795331,0.03865,0.054732,0.016548,-0.020251,0.01439,0.007968,0.294678,0.506104,-0.948486
1013,-0.064186,-0.102634,9.793826,0.016569,0.055097,0.018283,-0.019086,0.011463,0.003337,0.299072,0.501953,-0.950684
1014,-0.07364,-0.12748,9.795263,0.043086,0.053187,0.016558,-0.018651,0.017015,0.001312,0.301025,0.501953,-0.948486
1015,-0.067067,-0.106419,9.793766,0.021003,0.053555,0.018282,-0.020996,0.013194,0.006247,0.298828,0.506348,-0.946289
1016,-0.068385,-0.10835,9.793736,0.023159,0.052744,0.018283,-0.018494,0.01363,0.002637,0.298828,0.506348,-0.948486
1017,-0.073877,-0.132416,9.829455,0.047499,0.054773,-0.01767,-0.019825,0.012687,0.002694,0.296875,0.506104,-0.944092
1018,-0.085341,-0.105995,9.812507,0.025544,0.035952,-0.000665,-0.019977,0.016075,0.001364,0.303223,0.502197,-0.950684
1019,-0.062573,-0.142498,9.810546,0.053873,0.068499,0.001294,-0.019818,0.015107,0.00377,0.301025,0.50415,-0.948486
1020,-0.091934,-0.110768,9.778136,0.032197,0.03072,0.033593,-0.021743,0.009581,0.003439,0.296875,0.50415,-0.950684
1021,-0.071236,-0.11731,9.827878,0.032002,0.052815,-0.015955,-0.017899,0.015799,0.001934,0.301025,0.501953,-0.950684
1022,-0.058448,-0.125391,9.809013,0.036188,0.067247,0.002996,-0.021147,0.014166,0.003822,0.298828,0.50415,-0.944092
1023,-0.069801,-0.099004,9.79209,0.014328,0.048606,0.019979,-0.019818,0.012691,0.002681,0.301025,0.506348,-0.944092
1024,-0.061124,-0.129311,9.808946,0.040557,0.065759,0.003003,-0.019227,0.014858,0.001986,0.296875,0.50415,-0.950684
1025,-0.058656,-0.130472,9.843218,0.040632,0.068819,-0.031246,-0.019816,0.012693,0.002676,0.303223,0.502197,-0.952881
1026,-0.063667,-0.13313,9.808878,0.045022,0.064244,0.003013,-0.019073,0.011471,0.003309,0.303223,0.502197,-0.952881
1027,-0.020262,-0.101272,9.768405,0.002521,0.09625,0.044211,-0.018638,0.014608,0.000207,0.301025,0.501953,-0.952881
1028,-0.054446,-0.113036,9.841732,0.023018,0.067568,-0.029585,-0.017896,0.013385,0.00084,0.302979,0.50415,-0.950684
1029,-0.053318,-0.144982,9.789947,0.053708,0.077349,0.021975,-0.024388,0.012535,0.005693,0.298828,0.50415,-0.950684
1030,-0.06085,-0.117847,9.80736,0.02961,0.062327,0.004674,-0.016561,0.01433,0.00078,0.298828,0.508301,-0.946289
1031,-0.01178,-0.136541,9.819477,0.03344,0.114943,-0.007016,-0.018478,0.013639,0.002608,0.299072,0.501953,-0.950684
1032,-0.053466,-0.149857,9.824151,0.05818,0.078731,-0.012264,-0.019653,0.011725,0.005069,0.294678,0.508301,-0.953125
1033,-0.009948,-0.118048,9.78375,0.015641,0.110774,0.02886,-0.019808,0.012698,0.00266,0.301025,0.5,-0.955078
1034,-0.033545,-0.136833,9.803901,0.04027,0.093532,0.008303,-0.019221,0.012447,0.000885,0.301025,0.506348,-0.948486
1035,-0.049166,-0.132494,9.822694,0.040588,0.07756,-0.010633,-0.017142,0.014585,0.002545,0.305176,0.50415,-0.948486
1036,-0.023921,-0.095123,9.766841,-0.001912,0.090522,0.045773,-0.020231,0.014395,0.007915,0.305176,0.506348,-0.950684
