,acc_x,acc_y,acc_z,freeacc_x,freeacc_y,freeacc_z,gyr_x,gyr_y,gyr_z,mag_x,mag_y,mag_z
0,1.973897,2.282655,9.483548,0.072902,0.207744,-0.136984,0.046913,-0.180001,-0.050828,0.150146,-0.638428,-1.2146
1,2.151559,2.252615,9.538755,-0.068931,0.273345,-0.217858,0.050542,-0.133615,-0.029482,0.147949,-0.63623,-1.212158
2,2.203614,2.235369,9.42341,-0.133587,0.273409,-0.115094,0.051362,-0.069198,-0.019048,0.141602,-0.642822,-1.216553
3,2.142706,2.350219,9.517362,-0.052964,0.180779,-0.220229,0.053882,-0.036418,0.003724,0.143799,-0.640625,-1.216553
4,1.99824,2.382014,9.426944,0.06961,0.115674,-0.112835,0.042476,-0.025735,0.013881,0.141602,-0.636475,-1.20752
5,1.781323,2.362654,9.352216,0.267937,0.093816,0.007659,0.030179,-0.005077,-0.007637,0.143799,-0.638428,-1.214355
6,1.658386,2.39342,9.458176,0.411717,0.07611,-0.074703,0.024068,-0.009804,-0.008793,0.143799,-0.638428,-1.212158
7,1.77053,2.399327,9.355062,0.282352,0.060552,-0.00186,0.021859,-0.032295,-0.012179,0.143799,-0.634277,-1.214355
8,1.904801,2.377413,9.371157,0.162423,0.102317,-0.039322,0.023176,-0.057131,-0.009624,0.137451,-0.640869,-1.211914
9,2.023354,2.358656,9.315681,0.043241,0.122274,-0.006799,0.024656,-0.066858,-0.008169,0.139404,-0.636475,-1.214111
10,2.08761,2.365115,9.324686,-0.010298,0.127189,-0.030349,0.030919,-0.056239,-0.005139,0.141602,-0.642822,-1.216553
11,2.193351,2.431813,9.300709,-0.116549,0.071118,-0.046778,0.030129,-0.032708,0.001288,0.137451,-0.640869,-1.211914
12,2.225871,2.447988,9.292646,-0.147905,0.058981,-0.050124,0.024485,-0.000453,0.005199,0.137451,-0.634521,-1.211914
13,2.139144,2.378312,9.285276,-0.060499,0.115278,-0.007278,0.022941,0.028668,0.003097,0.139404,-0.638672,-1.214111
14,1.982298,2.443356,9.325801,0.095272,0.044917,-0.029008,0.02344,0.03805,-0.0065,0.137451,-0.640869,-1.209717
15,1.998765,2.382953,9.293409,0.073521,0.098608,0.01341,0.015998,0.039713,-0.004227,0.141602,-0.638672,-1.220947
16,2.031032,2.314412,9.231729,0.029295,0.155432,0.082251,0.021463,0.04718,-0.00406,0.137451,-0.640869,-1.214111
17,1.952225,2.403631,9.32943,0.120346,0.083678,-0.016117,0.016818,0.042405,-0.004056,0.139648,-0.642822,-1.216309
18,1.905317,2.345414,9.362989,0.174704,0.143325,-0.023251,0.020411,0.039124,-0.003467,0.143799,-0.638428,-1.214355
19,1.878578,2.351402,9.268375,0.176491,0.113519,0.070157,0.024439,0.036943,-0.004123,0.139404,-0.638672,-1.211914
20,1.849544,2.416891,9.2773,0.20099,0.05043,0.051154,0.020667,0.025138,-0.003605,0.143799,-0.642578,-1.214355
21,1.827392,2.481026,9.309773,0.225885,-0.005862,0.008827,0.016828,0.014277,0.002269,0.139648,-0.640869,-1.216309
22,1.780883,2.44732,9.294018,0.269929,0.018368,0.041992,0.022091,0.007118,0.006235,0.141602,-0.640625,-1.214355
23,1.697593,2.556714,9.217536,0.328769,-0.114557,0.10391,0.014506,-0.023809,-0.002623,0.141602,-0.642822,-1.211914
24,1.7128,2.55616,9.263904,0.329793,-0.101294,0.057251,0.013337,-0.056684,-0.000557,0.141602,-0.636475,-1.220947
25,1.900417,2.484032,9.240571,0.154629,-0.015899,0.058407,0.004712,-0.070415,0.016027,0.139404,-0.638672,-1.214111
26,1.999147,2.345615,9.286693,0.086856,0.138744,0.029316,0.003622,-0.077991,0.019297,0.137451,-0.642822,-1.218506
27,2.100078,2.30836,9.285914,7.3e-05,0.184388,0.018145,-0.001358,-0.067813,0.024777,0.131104,-0.643066,-1.216064
28,2.145873,2.344179,9.276319,-0.041706,0.151129,0.008328,0.001917,-0.046931,0.027835,0.131104,-0.638916,-1.220703
29,2.068452,2.378749,9.322163,0.048196,0.117147,-0.027212,-0.001045,-0.037142,0.025204,0.135254,-0.636719,-1.211914
30,2.104431,2.314164,9.336079,0.02597,0.185456,-0.031666,0.005941,-0.039887,0.024161,0.135254,-0.640869,-1.220703
31,2.213348,2.323484,9.309562,-0.081594,0.181774,-0.032399,0.005307,-0.018268,0.019864,0.131104,-0.638916,-1.218506
32,2.262767,2.334987,9.373113,-0.112955,0.190935,-0.105897,0.016749,0.006469,0.013263,0.133301,-0.640869,-1.218506
33,2.214473,2.379164,9.335978,-0.077611,0.134422,-0.071679,0.023069,0.035492,0.010274,0.128906,-0.641113,-1.216064
34,2.091938,2.368645,9.214138,0.010563,0.103255,0.072244,0.027316,0.047916,0.005817,0.135254,-0.638916,-1.214111
35,2.055147,2.387091,9.273486,0.056313,0.096234,0.019479,0.023084,0.053934,0.00425,0.128906,-0.641113,-1.216064
36,1.964885,2.40061,9.345808,0.15621,0.090654,-0.03288,0.018449,0.058377,0.001254,0.131104,-0.641113,-1.213867
37,1.860862,2.279518,9.265212,0.242309,0.177831,0.096061,0.029249,0.048052,0.00035,0.139648,-0.64502,-1.21875
38,1.862977,2.364936,9.36752,0.256423,0.121814,-0.022629,0.033163,0.039041,-0.00754,0.133057,-0.636719,-1.213867
39,1.877902,2.413429,9.364643,0.237163,0.07827,-0.035425,0.032499,0.023338,-0.002487,0.128906,-0.643066,-1.218262
40,1.827696,2.406066,9.300029,0.2707,0.067172,0.03811,0.042712,0.015247,-0.007022,0.135254,-0.642822,-1.211914
41,1.866645,2.446887,9.290642,0.229343,0.033622,0.028316,0.050854,0.000224,-0.013333,0.133301,-0.64502,-1.21167
42,1.991744,2.511605,9.361673,0.122678,0.006347,-0.081808,0.044073,-0.01053,-0.009741,0.137451,-0.640869,-1.220947
43,1.976731,2.410715,9.259794,0.121642,0.081282,0.043276,0.046774,0.00291,-0.010023,0.137451,-0.642822,-1.216309
44,1.920858,2.435219,9.222583,0.166814,0.046163,0.084067,0.052219,0.001177,-0.006859,0.133301,-0.638916,-1.216309
45,2.00031,2.464446,9.27832,0.103515,0.043818,0.007111,0.042483,-0.009017,-0.002879,0.137451,-0.646973,-1.216309
46,2.101744,2.400456,9.250211,0.004687,0.113925,0.028367,0.040349,-0.005769,-0.002335,0.131104,-0.638916,-1.21167
47,2.110719,2.426901,9.247807,-0.004172,0.091541,0.021951,0.04211,0.006443,0.00522,0.135498,-0.64917,-1.216309
48,2.069207,2.472122,9.233211,0.030599,0.042354,0.032991,0.037957,0.011479,-0.001708,0.12915,-0.645264,-1.216064
49,1.957378,2.389255,9.256722,0.150544,0.116696,0.056126,0.03167,0.01054,-0.005051,0.135254,-0.643066,-1.216309
50,1.991325,2.429273,9.223746,0.108652,0.076391,0.069659,0.031646,-0.007878,0.001022,0.133301,-0.640869,-1.216309
51,2.103557,2.44011,9.221143,0.00113,0.079968,0.045284,0.022802,-0.006678,-0.00052,0.131104,-0.64502,-1.21167
52,2.144032,2.400402,9.234579,-0.031382,0.127151,0.034186,0.017824,0.013188,0.004574,0.133301,-0.643066,-1.213867
53,2.03103,2.39331,9.236372,0.079263,0.12104,0.058578,0.012437,0.022264,0.011284,0.135254,-0.640869,-1.209473
54,2.047203,2.439175,9.233709,0.059507,0.077774,0.045783,0.004622,0.022328,0.012142,0.131348,-0.651367,-1.209473
55,2.034249,2.440122,9.186756,0.060893,0.062445,0.092541,-0.008435,0.018931,0.027655,0.133301,-0.647217,-1.216309
56,2.009377,2.477871,9.244716,0.095886,0.03432,0.033534,-0.011858,0.0281,0.02891,0.133301,-0.647217,-1.216309
57,1.945863,2.448658,9.259756,0.16247,0.055247,0.040485,-0.019884,0.022774,0.030573,0.12915,-0.645264,-1.216064
58,1.993765,2.421303,9.172539,0.097088,0.063217,0.119398,-0.019674,0.009265,0.03317,0.133301,-0.643066,-1.216309
59,2.037447,2.436425,9.314092,0.088822,0.082977,-0.027277,-0.025844,0.005488,0.037398,0.128906,-0.638916,-1.218262
60,2.014919,2.44239,9.32066,0.11202,0.071904,-0.030186,-0.025457,0.025996,0.035405,0.135498,-0.64502,-1.216309
61,1.906347,2.424759,9.246608,0.200242,0.054696,0.067417,-0.021235,0.029218,0.033943,0.128906,-0.643066,-1.218262
62,1.929718,2.388809,9.290721,0.189975,0.09884,0.029955,-0.019388,0.011853,0.039911,0.133301,-0.64502,-1.218506
63,2.008342,2.410672,9.348648,0.12688,0.096442,-0.04716,-0.021393,0.021486,0.044982,0.126953,-0.643311,-1.211426
64,2.083411,2.373482,9.279636,0.039514,0.121543,0.011191,-0.009973,0.027346,0.041695,0.135254,-0.640869,-1.214111
65,2.017683,2.452723,9.323839,0.108571,0.044867,-0.036529,-0.009686,0.03178,0.03554,0.128906,-0.638916,-1.213867
66,2.028518,2.419306,9.320501,0.098094,0.074982,-0.027253,-0.010134,0.030694,0.036784,0.131104,-0.638916,-1.213867
67,2.001993,2.36783,9.199774,0.097846,0.090997,0.10534,-0.002051,0.025821,0.032823,0.133301,-0.643066,-1.216309
68,2.066774,2.423098,9.261781,0.045957,0.057647,0.018908,-0.004307,0.022697,0.02883,0.131104,-0.641113,-1.213867
69,2.097989,2.411049,9.304435,0.025757,0.080434,-0.024999,-0.00897,0.037334,0.02812,0.128906,-0.638916,-1.216064
70,1.971668,2.326387,9.281581,0.145074,0.140819,0.045066,0.004695,0.056026,0.028465,0.133301,-0.643066,-1.2229
71,1.879709,2.36322,9.304684,0.234893,0.099314,0.033617,0.010391,0.049491,0.028527,0.126953,-0.63916,-1.216064
72,2.026678,2.437185,9.347476,0.095953,0.053867,-0.056988,0.006106,0.037074,0.033007,0.135254,-0.638916,-1.220703
73,2.024774,2.329209,9.31891,0.095109,0.150212,-0.002372,0.007922,0.058068,0.034822,0.128906,-0.636963,-1.218262
74,1.941266,2.305589,9.26227,0.160808,0.150304,0.074851,0.021208,0.055749,0.034493,0.131104,-0.641113,-1.220703
75,1.97662,2.378973,9.406609,0.154053,0.117493,-0.087479,0.023774,0.043882,0.033075,0.139404,-0.638672,-1.216309
76,2.069374,2.282931,9.305396,0.043281,0.19815,0.012517,0.032478,0.053379,0.03959,0.133301,-0.638916,-1.218506
77,1.973794,2.299323,9.352686,0.14374,0.184685,-0.015879,0.046469,0.057071,0.034535,0.135254,-0.636719,-1.214111
78,2.006169,2.393626,9.347119,0.103024,0.099138,-0.041365,0.052596,0.05163,0.033358,0.135254,-0.643066,-1.220703
79,2.027373,2.334267,9.338805,0.081442,0.160262,-0.022962,0.052843,0.056571,0.029855,0.133301,-0.640869,-1.209473
80,1.910741,2.325766,9.238865,0.168767,0.136343,0.098282,0.066215,0.06067,0.034045,0.135498,-0.64502,-1.216309
81,1.879872,2.425282,9.297807,0.205475,0.055411,0.023926,0.066608,0.035417,0.026399,0.12915,-0.647217,-1.21167
82,2.000104,2.436304,9.3438,0.098031,0.073316,-0.047719,0.057552,0.031253,0.025631,0.135498,-0.64502,-1.220703
83,2.06471,2.376967,9.174906,-0.001356,0.101873,0.113125,0.063381,0.040362,0.027152,0.135498,-0.64502,-1.211914
84,2.00664,2.486293,9.215311,0.056764,0.004051,0.059382,0.060178,0.047594,0.017684,0.133301,-0.64502,-1.216309
85,1.995493,2.522077,9.242603,0.070116,-0.021455,0.02682,0.047614,0.046219,0.013625,0.133301,-0.65332,-1.209473
86,1.995326,2.471734,9.239826,0.070146,0.029791,0.042356,0.047322,0.041325,0.017112,0.133301,-0.64502,-1.213867
87,2.004431,2.443885,9.235651,0.060146,0.059754,0.051521,0.04404,0.042112,0.003152,0.137451,-0.64502,-1.211914
88,2.037176,2.543886,9.330299,0.042287,-0.008112,-0.070332,0.027244,0.047254,0.000128,0.12915,-0.647217,-1.204834
89,2.048423,2.376051,9.24679,0.017888,0.136906,0.049198,0.029789,0.054838,-0.002075,0.135498,-0.64917,-1.214111
90,1.98105,2.346164,9.160178,0.061147,0.1402,0.152744,0.036644,0.055384,-0.00797,0.135498,-0.646973,-1.214111
91,1.994487,2.484703,9.335633,0.078054,0.051608,-0.051238,0.015255,0.045957,-0.010528,0.133301,-0.647217,-1.209473
92,2.012797,2.369146,9.3025,0.054761,0.158363,0.005923,0.021348,0.059996,-0.012528,0.137451,-0.642822,-1.209717
93,1.910498,2.372928,9.124735,0.109036,0.102566,0.193999,0.023355,0.060057,-0.017964,0.133301,-0.647217,-1.205078
94,1.954354,2.523799,9.293764,0.093029,0.003057,-0.013524,0.001836,0.044681,-0.022345,0.141846,-0.646973,-1.216553
95,1.952753,2.469523,9.292487,0.093534,0.054138,0.001958,-0.006207,0.056061,-0.013999,0.141846,-0.644775,-1.211914
96,1.896541,2.427988,9.153811,0.114168,0.053736,0.155134,-0.009041,0.055631,-0.01898,0.137451,-0.64917,-1.209717
97,1.908205,2.502644,9.203553,0.10681,-0.007133,0.086517,-0.021122,0.036298,-0.020764,0.137451,-0.646973,-1.211914
98,1.947601,2.488652,9.294975,0.08692,0.029551,-0.004373,-0.029761,0.040645,-0.012984,0.137451,-0.64917,-1.205078
99,1.896134,2.474923,9.231699,0.120254,0.018537,0.069483,-0.028569,0.044959,-0.011429,0.139648,-0.640869,-1.21875
100,1.82477,2.446096,9.222607,0.186196,0.032482,0.100122,-0.039816,0.028318,-0.01307,0.141602,-0.642822,-1.211914
101,1.882349,2.421427,9.285225,0.144479,0.072206,0.035374,-0.051515,0.017532,-0.006322,0.133301,-0.640869,-1.213867
102,1.93027,2.397459,9.300178,0.101811,0.098264,0.017432,-0.051245,0.010388,0.000845,0.141602,-0.642822,-1.214355
103,1.897176,2.40321,9.259108,0.124885,0.073062,0.061542,-0.055924,-0.000868,-0.003608,0.139648,-0.640625,-1.214111
104,1.95457,2.34766,9.246091,0.070401,0.123478,0.076063,-0.057163,-0.014421,-0.002086,0.139404,-0.636719,-1.216309
105,2.023044,2.374443,9.358316,0.030362,0.124619,-0.050999,-0.058586,-0.017195,0.004325,0.139404,-0.638672,-1.21875
106,1.925187,2.329783,9.355311,0.128853,0.149496,-0.016714,-0.056922,-0.002518,0.001543,0.137451,-0.64502,-1.216309
107,1.879626,2.289627,9.340584,0.173195,0.173407,0.016677,-0.049805,0.000638,0.002412,0.137451,-0.640869,-1.216309
108,1.920396,2.321063,9.33375,0.131315,0.140202,0.006707,-0.04323,-0.006074,0.010286,0.137451,-0.642822,-1.218506
109,1.946281,2.337083,9.404775,0.123302,0.138472,-0.069892,-0.041035,-0.002906,0.014264,0.135254,-0.636719,-1.216309
110,1.934172,2.281263,9.331586,0.122531,0.169057,0.015745,-0.032847,0.005538,0.022043,0.139648,-0.640869,-1.21875
111,1.910698,2.311753,9.288643,0.135043,0.122769,0.053561,-0.021687,0.006463,0.02232,0.141602,-0.642822,-1.21875
112,1.946453,2.327755,9.407053,0.127242,0.134894,-0.069892,-0.021762,0.006968,0.024981,0.143799,-0.638672,-1.223389
113,1.90289,2.338158,9.317633,0.149624,0.095968,0.021127,-0.012501,0.013765,0.03251,0.139404,-0.634521,-1.214111
114,1.932465,2.3739,9.262717,0.107092,0.049031,0.058002,-0.013019,0.006237,0.029263,0.139404,-0.638672,-1.225342
115,1.985261,2.382258,9.351808,0.077417,0.064293,-0.039348,-0.009744,0.000821,0.025834,0.135254,-0.636719,-1.220703
116,1.959513,2.367064,9.382366,0.111447,0.080944,-0.059116,-0.002404,0.009389,0.025886,0.135254,-0.636719,-1.218506
117,1.949386,2.36241,9.234396,0.089032,0.048683,0.084128,0.004969,0.008186,0.026352,0.137451,-0.636719,-1.220947
118,1.960738,2.43855,9.259575,0.081009,-0.019095,0.039058,0.00552,-0.000987,0.022852,0.135254,-0.634766,-1.218506
119,1.982286,2.43491,9.354843,0.083938,0.007064,-0.054645,-0.003021,0.005196,0.017731,0.133301,-0.640869,-1.216309
120,1.911587,2.379574,9.268648,0.137305,0.031645,0.055407,0.00407,-0.000943,0.021692,0.130859,-0.630615,-1.216064
121,1.980216,2.405328,9.279258,0.074138,0.015383,0.024646,0.006894,-0.007462,0.019515,0.130859,-0.632813,-1.218506
122,2.05972,2.429449,9.337416,0.011246,0.012928,-0.052996,0.004074,-0.007882,0.014536,0.135254,-0.634766,-1.220703
123,2.023369,2.339615,9.342259,0.054909,0.096091,-0.027708,0.009597,-0.000879,0.012018,0.135254,-0.638916,-1.220703
124,2.023392,2.340724,9.341976,0.056079,0.094939,-0.027712,0.018157,0.005035,0.006492,0.137451,-0.634521,-1.218506
125,2.066222,2.323892,9.331311,0.01362,0.114059,-0.022449,0.023202,0.020714,0.004804,0.133057,-0.634766,-1.220703
126,2.022883,2.290345,9.339165,0.057862,0.144925,-0.012453,0.026863,0.04288,0.006443,0.133057,-0.636719,-1.218506
127,1.920679,2.332053,9.312473,0.146834,0.089221,0.023913,0.0343,0.041178,0.004243,0.137451,-0.638672,-1.218506
128,1.975122,2.338024,9.324734,0.093797,0.094177,-0.000592,0.030018,0.047755,0.005245,0.133057,-0.636719,-1.2229
129,1.954519,2.343135,9.253596,0.094258,0.07244,0.069724,0.029976,0.057546,0.00481,0.141602,-0.640625,-1.21875
130,1.978052,2.388901,9.299262,0.07513,0.042719,0.010222,0.021282,0.064754,0.004987,0.137451,-0.640869,-1.216309
131,1.836541,2.33917,9.278218,0.206151,0.071419,0.071931,0.012828,0.067623,0.004749,0.139404,-0.638672,-1.21875
132,1.816548,2.318306,9.25653,0.217449,0.084537,0.101699,0.008235,0.053037,0.005196,0.135254,-0.636719,-1.218506
133,1.870497,2.321619,9.269672,0.164844,0.089406,0.077169,-0.001539,0.045643,0.001573,0.137207,-0.632568,-1.216309
134,1.87705,2.319754,9.318199,0.166796,0.101859,0.030295,-0.002365,0.040126,0.008982,0.141602,-0.636475,-1.21875
135,1.828043,2.28389,9.302887,0.211068,0.125779,0.063778,-0.015016,0.032802,0.003038,0.141602,-0.632324,-1.220947
136,1.821901,2.259235,9.328721,0.223167,0.152508,0.046653,-0.011976,0.012639,0.003573,0.133057,-0.634766,-1.218506
137,1.848104,2.271628,9.298881,0.191797,0.133554,0.066388,-0.01873,-0.010791,0.015195,0.139404,-0.638672,-1.21875
138,1.870558,2.206347,9.267463,0.169572,0.188223,0.107604,-0.023679,-0.029826,0.02181,0.135254,-0.634766,-1.2229
139,1.925083,2.159985,9.329782,0.138903,0.248906,0.04872,-0.024523,-0.051588,0.025171,0.137207,-0.630371,-1.218506
140,1.997835,2.206698,9.291338,0.06401,0.198074,0.058382,-0.028214,-0.066801,0.030678,0.137451,-0.638672,-1.218506
141,2.055069,2.261458,9.281657,0.011977,0.143745,0.042025,-0.031411,-0.074448,0.039406,0.133301,-0.638916,-1.216309
142,2.076413,2.303245,9.25455,-0.008358,0.093575,0.052857,-0.03873,-0.076525,0.043812,0.128906,-0.634766,-1.216064
143,2.155268,2.269495,9.262246,-0.072391,0.129817,0.03706,-0.044474,-0.069872,0.043637,0.135254,-0.630615,-1.220703
144,2.213543,2.29819,9.301802,-0.113442,0.11024,-0.019908,-0.045281,-0.05913,0.055083,0.126709,-0.63501,-1.222656
145,2.23607,2.284127,9.272727,-0.134296,0.112459,0.006056,-0.047306,-0.040097,0.056985,0.126709,-0.63501,-1.222656
146,2.243972,2.302029,9.248103,-0.144096,0.08341,0.023181,-0.042483,-0.013115,0.062864,0.128906,-0.634766,-1.225098
147,2.213358,2.289096,9.356121,-0.086134,0.109883,-0.069439,-0.047914,0.015182,0.065964,0.128906,-0.628662,-1.225098
148,2.155551,2.250558,9.294032,-0.04318,0.120343,0.010948,-0.042244,0.04486,0.072017,0.122559,-0.633057,-1.227051
149,2.059146,2.28395,9.293219,0.046025,0.071345,0.024265,-0.037267,0.068024,0.080137,0.124512,-0.630859,-1.224854
150,1.988542,2.307082,9.311234,0.113261,0.039403,0.016687,-0.040654,0.076853,0.078627,0.133057,-0.634766,-1.227539
151,1.922669,2.329235,9.353131,0.181363,0.014154,-0.014313,-0.038586,0.080577,0.085229,0.126709,-0.626709,-1.225098
152,1.834837,2.277437,9.321693,0.257297,0.042221,0.046454,-0.041066,0.072041,0.082033,0.126709,-0.630859,-1.222656
153,1.76626,2.276313,9.388049,0.336423,0.044798,-0.001667,-0.038532,0.050312,0.081061,0.128662,-0.626465,-1.225098
154,1.766422,2.241417,9.33787,0.325208,0.061434,0.054077,-0.03637,0.026963,0.078684,0.122559,-0.628906,-1.227051
155,1.761792,2.237668,9.315073,0.326329,0.053422,0.07758,-0.035975,-0.001278,0.078626,0.126709,-0.628662,-1.227295
156,1.798913,2.299094,9.336124,0.296338,-0.00434,0.035301,-0.039314,-0.032114,0.076074,0.128662,-0.624512,-1.227295
157,1.819695,2.20776,9.329144,0.285581,0.078231,0.059188,-0.035446,-0.053404,0.078911,0.124512,-0.624756,-1.227051
158,1.791116,2.191387,9.311141,0.318841,0.081114,0.086467,-0.032138,-0.082231,0.078486,0.128662,-0.620361,-1.225098
159,1.948367,2.234069,9.380039,0.192167,0.063499,-0.022523,-0.029632,-0.107265,0.082356,0.122559,-0.628906,-1.233887
160,2.048346,2.166749,9.406298,0.116885,0.137953,-0.053227,-0.026052,-0.104088,0.087446,0.118164,-0.622803,-1.229248
161,2.023633,2.14588,9.286784,0.126558,0.124148,0.070367,-0.017796,-0.096154,0.092542,0.116211,-0.631104,-1.226807
162,2.074571,2.207276,9.329379,0.097085,0.073119,0.004607,-0.019361,-0.105791,0.091717,0.114014,-0.622803,-1.226807
163,2.023888,2.177737,9.340548,0.163836,0.093517,0.012234,-0.027933,-0.112522,0.091827,0.109619,-0.623047,-1.229004
164,2.206451,2.07258,9.32075,6.7e-05,0.202402,0.014759,-0.019461,-0.119203,0.094193,0.109619,-0.623047,-1.229004
165,2.348701,2.148208,9.368153,-0.11557,0.146708,-0.079663,-0.015739,-0.10348,0.091386,0.111816,-0.625,-1.229004
166,2.424331,2.115619,9.350082,-0.18036,0.176385,-0.072332,-0.010535,-0.077574,0.092032,0.101074,-0.619141,-1.230957
167,2.348981,2.06749,9.315345,-0.104069,0.204457,-0.011529,-0.004872,-0.057577,0.084307,0.107666,-0.623047,-1.22876
168,2.280585,2.072243,9.331654,-0.026265,0.193495,-0.012632,-0.000498,-0.044661,0.082514,0.105469,-0.623047,-1.22876
169,2.354358,2.094355,9.341318,-0.089229,0.177384,-0.043789,0.001498,-0.033859,0.082047,0.103271,-0.619141,-1.233154
170,2.327833,2.05063,9.295405,-0.067933,0.204979,0.015656,0.010912,-0.014119,0.084323,0.105469,-0.623291,-1.235596
171,2.296476,2.09202,9.304718,-0.032861,0.162079,0.004488,0.017213,0.003089,0.077593,0.103271,-0.621094,-1.235352
172,2.292142,2.098434,9.381218,-0.007982,0.170683,-0.068375,0.022688,0.011035,0.0804,0.099121,-0.623291,-1.228516
173,2.248376,2.113545,9.291509,0.013463,0.132378,0.023065,0.029714,0.031958,0.079136,0.105469,-0.625244,-1.22876
174,2.185476,2.192142,9.234244,0.05789,0.037994,0.073681,0.027281,0.033178,0.075585,0.096924,-0.623535,-1.230713
175,2.163285,2.17811,9.288587,0.093198,0.060957,0.030591,0.020218,0.032435,0.064537,0.103271,-0.625244,-1.235352
176,2.140671,2.163922,9.343057,0.12813,0.083916,-0.012499,0.019148,0.037398,0.05993,0.099121,-0.621338,-1.230957
177,2.138753,2.159105,9.242861,0.105499,0.066274,0.083815,0.018908,0.031481,0.058075,0.103271,-0.621094,-1.22876
178,2.051864,2.174681,9.313355,0.206435,0.058273,0.033528,0.014214,0.019259,0.048294,0.101318,-0.623291,-1.22876
179,2.095,2.154955,9.302571,0.16407,0.077691,0.038347,0.00992,0.005353,0.044781,0.099121,-0.625488,-1.230957
180,2.108561,2.098523,9.346807,0.165626,0.142345,0.006315,0.016826,-0.007852,0.041549,0.101318,-0.625488,-1.233154
181,2.173242,2.124012,9.333111,0.102119,0.119586,-0.001417,0.020743,-0.006336,0.038725,0.096924,-0.621338,-1.228516
182,2.151128,2.189819,9.340905,0.126193,0.05554,-0.018699,0.025536,-0.002143,0.036074,0.103271,-0.625244,-1.22876
183,2.190058,2.178116,9.406217,0.107613,0.084654,-0.086742,0.026264,-0.00593,0.03176,0.103271,-0.623291,-1.233154
184,2.11314,2.099322,9.243855,0.147029,0.121162,0.102637,0.035859,0.002443,0.02646,0.094971,-0.623535,-1.228516
185,2.170246,2.187728,9.309481,0.108121,0.055572,0.00719,0.034689,-0.013175,0.01733,0.103271,-0.625244,-1.230957
186,2.284378,2.169172,9.357143,0.012619,0.094582,-0.060038,0.029158,-0.010282,0.019429,0.097168,-0.627441,-1.228516
187,2.218448,2.088413,9.242287,0.05357,0.144472,0.082369,0.037619,-0.002991,0.021877,0.099121,-0.625488,-1.233154
188,2.287083,2.144965,9.303625,0.002897,0.110292,-0.004485,0.040263,-0.005764,0.017477,0.097168,-0.627441,-1.230713
189,2.319195,2.160442,9.296127,-0.028039,0.098344,-0.008397,0.038493,0.002969,0.01718,0.101318,-0.625488,-1.235352
190,2.342628,2.099165,9.287103,-0.049588,0.160013,0.008779,0.040482,0.000195,0.019299,0.097168,-0.625488,-1.235352
191,2.273121,2.103749,9.226962,0.004752,0.139293,0.080769,0.045421,0.010863,0.021107,0.094971,-0.629639,-1.230713
192,2.361743,2.181019,9.334582,-0.055211,0.097279,-0.059323,0.044947,-0.001016,0.017446,0.094971,-0.625488,-1.228516
193,2.34221,2.110049,9.284741,-0.045038,0.156432,0.0087,0.042373,0.015323,0.019225,0.094971,-0.625488,-1.226318
194,2.272049,2.090755,9.273697,0.020752,0.170069,0.039992,0.052359,0.0253,0.0153,0.097168,-0.627441,-1.230713
195,2.37445,2.183843,9.303573,-0.073269,0.097398,-0.03357,0.043978,0.017476,0.010221,0.099121,-0.625488,-1.230957
196,2.417019,2.113272,9.289838,-0.116767,0.169443,-0.014146,0.047887,0.033072,0.007409,0.094971,-0.623535,-1.230713
197,2.269859,2.102696,9.296412,0.025948,0.173104,0.016452,0.056663,0.049058,0.004146,0.094971,-0.623535,-1.230713
198,2.306698,2.142252,9.288472,-0.015956,0.140068,0.006264,0.054758,0.054573,-0.005498,0.099365,-0.631592,-1.230713
199,2.331351,2.214139,9.284613,-0.046107,0.075607,-0.012474,0.055056,0.06001,-0.006338,0.097168,-0.629639,-1.224121
200,2.250867,2.196971,9.250584,0.01901,0.082601,0.042365,0.051688,0.076418,-0.012275,0.099365,-0.633789,-1.230713
201,2.205391,2.221185,9.285489,0.065272,0.067286,0.014273,0.050152,0.0803,-0.015671,0.094971,-0.629639,-1.228516
202,2.175107,2.266508,9.342838,0.101243,0.037447,-0.043535,0.045999,0.076129,-0.019541,0.103516,-0.629395,-1.226563
203,2.116047,2.208029,9.252356,0.131997,0.073074,0.069157,0.039038,0.082353,-0.023494,0.103516,-0.633545,-1.226563
204,2.011543,2.230228,9.275178,0.231788,0.051427,0.066264,0.039276,0.077494,-0.026559,0.103516,-0.627441,-1.22876
205,2.051476,2.267724,9.291705,0.190903,0.025021,0.032614,0.035176,0.059187,-0.030392,0.099365,-0.633789,-1.228516
206,2.047054,2.217117,9.289659,0.191395,0.076339,0.047375,0.035718,0.056477,-0.029412,0.103516,-0.635742,-1.224121
207,1.994369,2.211414,9.224905,0.223539,0.066046,0.121847,0.033565,0.046241,-0.026252,0.105713,-0.633545,-1.230957
208,2.029362,2.309922,9.32009,0.20711,-0.003556,0.000694,0.022351,0.031922,-0.023861,0.103516,-0.633545,-1.22876
209,2.139659,2.260946,9.318623,0.099546,0.053758,-0.011464,0.013742,0.025668,-0.021007,0.105713,-0.635498,-1.22876
210,2.140928,2.147434,9.213625,0.074514,0.14169,0.114218,0.020894,0.028721,-0.020141,0.105713,-0.633545,-1.226563
211,2.13372,2.265422,9.318897,0.102443,0.051306,-0.011447,0.021168,0.023827,-0.02318,0.105713,-0.631348,-1.226563
212,2.141223,2.265879,9.366704,0.105127,0.063223,-0.058439,0.015637,0.026714,-0.021113,0.105469,-0.629395,-1.22876
213,2.165928,2.088018,9.254342,0.057714,0.214203,0.084137,0.022983,0.028679,-0.025522,0.103516,-0.629395,-1.22876
214,2.176585,2.16691,9.279111,0.049833,0.145884,0.039706,0.029251,0.018717,-0.026992,0.103516,-0.635742,-1.226563
215,2.222893,2.287901,9.37255,0.023252,0.055137,-0.087659,0.025626,0.022636,-0.025021,0.107666,-0.633545,-1.22876
216,2.215822,2.122146,9.217594,-0.004021,0.182603,0.099601,0.022296,0.031984,-0.023903,0.105713,-0.635498,-1.224365
217,2.19453,2.188714,9.248809,0.021045,0.124993,0.059184,0.026862,0.019896,-0.030549,0.101563,-0.637695,-1.226318
218,2.218791,2.319301,9.347392,0.0161,0.023756,-0.070384,0.015421,0.024034,-0.027815,0.105713,-0.635498,-1.222168
219,2.157145,2.181135,9.255461,0.056527,0.133228,0.063163,0.017034,0.02998,-0.024883,0.112061,-0.637451,-1.226807
220,2.154084,2.183258,9.255673,0.057796,0.13198,0.063153,0.016838,0.024008,-0.026671,0.103516,-0.639893,-1.224121
221,2.169634,2.260234,9.304466,0.051019,0.070215,-0.004722,0.010447,0.02419,-0.024759,0.109863,-0.633301,-1.224365
222,2.185671,2.174124,9.322751,0.040972,0.1596,-0.00518,0.011187,0.024176,-0.017087,0.107666,-0.635498,-1.222168
223,2.115623,2.14562,9.211418,0.082051,0.157398,0.122576,0.024142,0.029814,-0.019139,0.107666,-0.633545,-1.226563
224,2.241042,2.257488,9.312643,-0.020575,0.083212,-0.027866,0.017068,0.030014,-0.010705,0.109863,-0.635498,-1.226563
225,2.232787,2.23608,9.338317,-0.007553,0.109632,-0.045176,0.014944,0.040421,-0.003171,0.109863,-0.635498,-1.222168
226,2.109938,2.126649,9.285607,0.099128,0.194397,0.058235,0.023397,0.057626,-0.00124,0.107666,-0.635498,-1.226563
227,2.106166,2.237305,9.314432,0.10295,0.094528,0.005518,0.027582,0.050994,-0.002207,0.109863,-0.635498,-1.224365
228,2.154453,2.242061,9.303742,0.04967,0.093036,0.003661,0.024796,0.057619,-0.000108,0.111816,-0.631348,-1.226807
229,2.107055,2.210057,9.312161,0.094523,0.123557,0.013903,0.030937,0.068919,0.005404,0.109863,-0.631348,-1.226807
230,2.080729,2.216046,9.217347,0.092674,0.096175,0.107949,0.034922,0.066656,0.004822,0.109863,-0.635498,-1.231201
231,2.091047,2.301278,9.366896,0.111041,0.049988,-0.056065,0.030635,0.066788,0.001345,0.109863,-0.633301,-1.224365
232,2.061912,2.229464,9.295222,0.11989,0.102829,0.035255,0.029549,0.065209,0.006463,0.114014,-0.635254,-1.229004
233,2.046248,2.233702,9.248042,0.119924,0.088579,0.082291,0.032686,0.060238,0.005747,0.109863,-0.635498,-1.219971
234,2.085851,2.324782,9.266839,0.079453,0.009492,0.033971,0.028811,0.051622,0.00152,0.114258,-0.637451,-1.224609
235,2.066002,2.281764,9.294062,0.103145,0.056958,0.02287,0.020679,0.056764,0.005265,0.114014,-0.633301,-1.222412
236,2.055931,2.260651,9.320017,0.115866,0.08327,0.00556,0.021719,0.055114,0.005023,0.116211,-0.635254,-1.226807
237,2.052994,2.20815,9.318574,0.116811,0.134669,0.020101,0.023444,0.050167,0.003162,0.112061,-0.637451,-1.229004
238,2.056704,2.31054,9.270515,0.095866,0.025599,0.040214,0.019266,0.046462,0.001951,0.114014,-0.633301,-1.220215
239,2.071414,2.224495,9.289553,0.086308,0.115047,0.039549,0.01484,0.040598,0.010916,0.114258,-0.637451,-1.224609
240,2.085007,2.216432,9.261319,0.064809,0.117733,0.065185,0.016207,0.034009,0.007676,0.116211,-0.639404,-1.218018
241,2.118693,2.229365,9.279417,0.034659,0.112402,0.037582,0.017255,0.032349,0.007443,0.112061,-0.637451,-1.222168
242,2.167059,2.240074,9.369292,0.00667,0.126472,-0.060593,0.01288,0.033011,0.006603,0.116211,-0.637451,-1.226807
243,2.122131,2.230299,9.328124,0.039241,0.122894,-0.009478,0.013307,0.044483,0.007469,0.112061,-0.637451,-1.226807
244,2.064351,2.168409,9.213185,0.068273,0.152428,0.126696,0.020102,0.035566,0.004844,0.114014,-0.635254,-1.220215
245,2.172114,2.289398,9.343918,-0.01088,0.074108,-0.049494,0.017806,0.029629,0.008451,0.116211,-0.637451,-1.231445
246,2.129192,2.225271,9.300711,0.020664,0.123103,0.01611,0.012354,0.045618,0.005043,0.114258,-0.639404,-1.219971
247,2.10568,2.205861,9.254787,0.031239,0.130024,0.069335,0.024252,0.04262,0.015325,0.114258,-0.639404,-1.226807
248,2.136477,2.250296,9.324135,0.013797,0.106002,-0.013626,0.024363,0.042073,0.012684,0.116211,-0.637451,-1.224609
249,2.154128,2.242146,9.319959,-0.00652,0.115273,-0.011558,0.02276,0.053076,0.016258,0.116211,-0.633301,-1.222412
250,2.136129,2.168031,9.296232,0.003924,0.181239,0.032581,0.028831,0.064446,0.021737,0.116211,-0.637451,-1.229248
251,2.073378,2.277377,9.311308,0.061399,0.074854,0.005729,0.032731,0.066,0.018907,0.116211,-0.639404,-1.224609
252,2.072229,2.279405,9.335905,0.063571,0.080018,-0.0178,0.032624,0.06985,0.016616,0.118408,-0.637207,-1.222412
253,1.995559,2.228119,9.249541,0.11561,0.105721,0.092799,0.034354,0.064895,0.014772,0.114258,-0.637451,-1.217773
254,2.087507,2.297926,9.307199,0.033023,0.060464,0.001604,0.033532,0.065464,0.009714,0.118408,-0.639404,-1.222412
255,2.032944,2.297997,9.342248,0.09009,0.065792,-0.019851,0.031134,0.063362,0.011041,0.118408,-0.637207,-1.222412
256,2.050873,2.259652,9.287325,0.056381,0.093667,0.037486,0.031911,0.073195,0.003962,0.124756,-0.63916,-1.227051
257,1.990815,2.260495,9.298481,0.112559,0.092536,0.039577,0.032235,0.068264,0.000965,0.122559,-0.641357,-1.224854
258,1.969881,2.303332,9.402516,0.150677,0.07492,-0.0648,0.030408,0.063409,0.003325,0.122559,-0.641357,-1.222656
259,1.940045,2.200851,9.255763,0.145664,0.140378,0.105178,0.035189,0.053987,0.003475,0.118408,-0.641357,-1.222412
260,1.958011,2.279046,9.32805,0.139633,0.08465,0.014029,0.034994,0.038093,0.002304,0.124756,-0.643311,-1.218262
261,1.959233,2.281674,9.351945,0.142173,0.089862,-0.009492,0.035777,0.037565,0.007341,0.120361,-0.637207,-1.220215
262,1.97711,2.1895,9.270917,0.106903,0.164028,0.085692,0.032598,0.042596,0.007982,0.122803,-0.643311,-1.222656
263,1.969609,2.278478,9.323413,0.122251,0.091415,0.016078,0.039767,0.028679,0.002458,0.120605,-0.63916,-1.224854
264,2.047257,2.273503,9.332286,0.047985,0.107,-0.007592,0.040635,0.024323,0.009788,0.118408,-0.641357,-1.220215
265,2.020806,2.256322,9.261542,0.057508,0.107603,0.069181,0.036665,0.036505,0.009725,0.120605,-0.643311,-1.222412
266,2.025497,2.31307,9.31084,0.06127,0.066466,0.007765,0.038505,0.02769,0.010206,0.120605,-0.63916,-1.220215
267,2.013499,2.29391,9.311941,0.073568,0.086329,0.013933,0.03277,0.021284,0.015396,0.131104,-0.641113,-1.220703
268,2.024223,2.287693,9.25931,0.051057,0.082726,0.063001,0.034571,0.026174,0.013006,0.122803,-0.645508,-1.220459
269,1.973308,2.287943,9.293222,0.108168,0.08795,0.04165,0.030081,0.020778,0.010433,0.124756,-0.641113,-1.222656
270,1.976689,2.289756,9.31688,0.110417,0.093046,0.018113,0.025056,0.011044,0.01404,0.122803,-0.645508,-1.218018
271,2.026746,2.239764,9.280879,0.05596,0.138101,0.053756,0.026321,0.011597,0.017829,0.120605,-0.641357,-1.220215
272,2.050424,2.285771,9.301655,0.036873,0.101047,0.017883,0.025315,0.016531,0.013113,0.122559,-0.63916,-1.21582
273,2.027486,2.297787,9.305804,0.060438,0.089303,0.015908,0.02026,0.013879,0.009503,0.124756,-0.63916,-1.216064
274,2.032009,2.322136,9.280163,0.050107,0.060527,0.033289,0.019422,0.011154,0.009382,0.116455,-0.645508,-1.215576
275,2.025673,2.300898,9.30543,0.063377,0.086784,0.015904,0.015206,0.011227,0.005893,0.122803,-0.643311,-1.224854
276,2.042188,2.292519,9.276942,0.041785,0.089632,0.0414,0.015287,0.0074,0.008191,0.118408,-0.643555,-1.21582
277,2.055871,2.315451,9.299359,0.033706,0.073737,0.011696,0.013578,0.015656,0.005057,0.126953,-0.641113,-1.220459
278,2.003383,2.283381,9.258694,0.076354,0.091268,0.069144,0.016165,0.020016,0.00771,0.120605,-0.63916,-1.21582
279,1.998361,2.292855,9.358965,0.103841,0.105019,-0.02698,0.013088,0.014584,0.00631,0.122559,-0.641357,-1.220459
280,2.031356,2.27471,9.302366,0.059327,0.112055,0.023987,0.014896,0.019468,0.003916,0.120605,-0.641357,-1.218018
281,1.97164,2.274573,9.288519,0.114509,0.10444,0.049818,0.016588,0.017849,0.011377,0.116455,-0.645508,-1.220215
282,1.972156,2.306746,9.363307,0.130055,0.090596,-0.028901,0.013431,0.016243,0.007678,0.122803,-0.643311,-1.222656
283,2.000774,2.288924,9.28274,0.084835,0.091403,0.0456,0.013429,0.016246,0.007677,0.120605,-0.645508,-1.220215
284,1.972429,2.277603,9.312444,0.119765,0.106961,0.026279,0.015968,0.010721,0.010931,0.120605,-0.645508,-1.222412
285,1.974651,2.332914,9.337611,0.122953,0.059398,-0.011469,0.013869,0.007437,0.007024,0.118408,-0.645508,-1.218018
286,2.013621,2.314009,9.304795,0.079407,0.072852,0.015907,0.011858,-0.000115,0.016974,0.128906,-0.641113,-1.218262
287,2.035272,2.304837,9.300278,0.05911,0.082212,0.017815,0.014356,0.008515,0.005767,0.120361,-0.637207,-1.218018
288,2.004069,2.317104,9.25638,0.080307,0.057626,0.063017,0.01535,0.003591,0.010487,0.122559,-0.641357,-1.218018
289,1.991408,2.32727,9.308413,0.1059,0.05854,0.014024,0.009395,0.001588,0.016017,0.118408,-0.641357,-1.222412
290,2.032253,2.253545,9.274313,0.061805,0.124744,0.055535,0.012828,0.002043,0.01446,0.118408,-0.643555,-1.227051
291,2.004011,2.296693,9.304978,0.097616,0.087655,0.022066,0.016638,-0.009562,0.017185,0.122559,-0.641357,-1.222656
292,2.005144,2.297794,9.304462,0.098934,0.086332,0.022068,0.014526,-0.006207,0.017599,0.124756,-0.641113,-1.220459
293,2.039683,2.256431,9.296857,0.067418,0.127359,0.031963,0.018524,-0.008503,0.017088,0.116455,-0.643555,-1.220215
294,2.067348,2.247081,9.315943,0.047864,0.142957,0.01027,0.017056,-0.011723,0.020854,0.122803,-0.645508,-1.220459
295,2.064014,2.248828,9.291372,0.048452,0.135426,0.033818,0.020964,-0.00355,0.022355,0.116455,-0.645508,-1.220215
296,2.085037,2.294668,9.287786,0.028376,0.091972,0.021539,0.020961,-0.003546,0.022352,0.118408,-0.643555,-1.220215
297,2.090238,2.29568,9.31127,0.031065,0.097092,-0.002026,0.017873,-0.001917,0.013729,0.120605,-0.63916,-1.224854
298,2.077007,2.298329,9.23888,0.029207,0.076819,0.068642,0.018708,0.000815,0.013841,0.116455,-0.645508,-1.220215
299,2.118225,2.310859,9.280624,0.000341,0.07778,0.017236,0.016957,-0.00082,0.011309,0.118408,-0.639404,-1.222412
300,2.079353,2.332101,9.31285,0.046571,0.061579,-0.010022,0.013938,0.003627,0.009306,0.120605,-0.63916,-1.220215
301,2.036056,2.291037,9.195772,0.064243,0.070972,0.120039,0.017502,0.010142,0.009434,0.116211,-0.641357,-1.218018
302,2.037836,2.32338,9.270219,0.08,0.056906,0.041393,0.012119,-0.001246,0.011705,0.118408,-0.645508,-1.220215
303,2.073196,2.312347,9.337804,0.062959,0.085215,-0.027457,0.000761,0.006141,0.009352,0.118408,-0.647705,-1.222412
304,2.060633,2.259391,9.264663,0.06054,0.11774,0.057304,0.013783,0.010864,0.016238,0.112061,-0.643799,-1.222168
305,2.090196,2.326456,9.260067,0.030039,0.05334,0.038926,0.004325,0.012657,0.009478,0.112061,-0.643799,-1.222168
306,2.085683,2.335104,9.360482,0.057661,0.066579,-0.057148,0.000401,0.011136,0.012292,0.114258,-0.643555,-1.226807
307,2.026097,2.247893,9.270958,0.097753,0.124481,0.0616,0.002076,0.016599,0.012514,0.114258,-0.645752,-1.222412
308,2.056933,2.25982,9.265381,0.066463,0.11271,0.057283,0.00369,0.012173,0.013356,0.116211,-0.641357,-1.215576
309,2.055569,2.322395,9.390983,0.09602,0.079555,-0.076392,-0.003383,0.009033,0.01248,0.120605,-0.641357,-1.218018
310,2.061943,2.204356,9.288536,0.070055,0.169231,0.047742,0.003974,0.003945,0.015345,0.118408,-0.637207,-1.224609
311,2.050093,2.237114,9.29122,0.082882,0.136342,0.039824,0.010136,0.008178,0.013802,0.116211,-0.641602,-1.224609
312,2.092474,2.35743,9.359642,0.0559,0.037878,-0.063257,0.004965,-0.000562,0.008524,0.114258,-0.645752,-1.226807
313,2.086454,2.249475,9.309216,0.054352,0.129647,0.011913,0.007549,0.003809,0.011162,0.109863,-0.641602,-1.219971
314,2.098928,2.240804,9.256846,0.031537,0.126418,0.06082,0.013508,0.005796,0.00563,0.114258,-0.641602,-1.222412
315,2.072747,2.338475,9.312724,0.068987,0.042659,-0.00999,0.01505,0.005191,0.004167,0.10791,-0.639648,-1.219971
316,2.064663,2.285981,9.263387,0.067596,0.081571,0.051147,0.014488,0.007942,0.003116,0.116211,-0.641602,-1.224609
317,2.072897,2.286342,9.311267,0.071504,0.09289,0.004007,0.010637,0.009658,0.000998,0.116211,-0.641357,-1.215576
318,2.107032,2.267747,9.254593,0.026752,0.100332,0.054667,0.01617,-0.000305,0.006269,0.109863,-0.641602,-1.219971
319,2.175544,2.292212,9.266679,-0.035725,0.084546,0.022378,0.008336,-0.002944,0.000354,0.116211,-0.641357,-1.220215
320,2.079871,2.265779,9.408237,0.091167,0.135086,-0.08418,0.011665,0.021297,0.009396,0.118408,-0.641357,-1.220215
321,2.024727,2.193938,9.168794,0.091527,0.145257,0.171619,0.01616,0.013411,0.00333,0.110107,-0.643799,-1.222168
322,2.080086,2.313802,9.309058,0.068085,0.065429,-0.002101,0.00923,0.002626,0.007074,0.116455,-0.643555,-1.222412
323,2.13397,2.238614,9.347341,0.02781,0.150785,-0.031829,0.008593,0.002144,0.010953,0.112061,-0.643555,-1.217773
324,2.07484,2.152156,9.257587,0.067411,0.208765,0.08687,0.010892,0.014751,0.01159,0.114258,-0.645752,-1.219971
325,2.077318,2.20755,9.282521,0.070655,0.161023,0.049348,0.018544,0.001826,0.004916,0.114258,-0.643555,-1.219971
326,2.147215,2.263427,9.369361,0.022623,0.132083,-0.061552,0.009013,0.007039,0.007385,0.110107,-0.643799,-1.222168
327,2.083558,2.177548,9.255583,0.061295,0.183997,0.080723,0.01419,0.009131,0.008352,0.118408,-0.639404,-1.220215
328,2.101962,2.277736,9.253292,0.041604,0.087756,0.054598,0.016729,0.004005,7.8e-05,0.112061,-0.643555,-1.219971
329,2.193152,2.323359,9.336008,-0.028001,0.069587,-0.054598,0.008182,0.011361,3.2e-05,0.110107,-0.647949,-1.226563
330,2.136106,2.214041,9.32005,0.025848,0.167344,-0.000548,0.014259,0.026081,0.000469,0.112061,-0.639648,-1.226807
331,2.13896,2.238236,9.294716,0.015556,0.13887,0.01692,0.020638,0.03296,-0.008636,0.118408,-0.641357,-1.218018
332,2.147468,2.293848,9.368044,0.020937,0.103369,-0.067721,0.020271,0.03797,-0.00571,0.116455,-0.643555,-1.222412
333,2.053264,2.282626,9.360217,0.108533,0.106056,-0.037029,0.017383,0.0485,-0.006059,0.110107,-0.645752,-1.224365
334,1.994996,2.197442,9.294878,0.149227,0.170336,0.058087,0.030556,0.039334,-0.010388,0.114258,-0.637451,-1.215576
335,2.007923,2.330924,9.343298,0.143366,0.054873,-0.022892,0.027472,0.026834,-0.004513,0.112061,-0.641602,-1.219971
336,2.051135,2.280988,9.28449,0.087361,0.094224,0.035402,0.023793,0.037478,0.001632,0.112061,-0.641602,-1.217773
337,1.958189,2.270277,9.276108,0.174922,0.096901,0.066157,0.028367,0.02576,-0.002099,0.112061,-0.643799,-1.224609
338,1.998477,2.306783,9.268562,0.132897,0.064116,0.055658,0.025438,0.012659,0.001165,0.114258,-0.645752,-1.224609
339,2.073129,2.300176,9.254246,0.058113,0.073917,0.054567,0.021239,0.005652,0.004934,0.118408,-0.643555,-1.218018
340,2.091638,2.323606,9.300309,0.051184,0.06389,0.001309,0.021579,0.00732,0.006294,0.10791,-0.639648,-1.224365
341,2.029763,2.27022,9.260852,0.104465,0.102811,0.065086,0.028072,0.013234,0.006103,0.112061,-0.645752,-1.222168
342,2.115034,2.371993,9.320306,0.033924,0.025398,-0.034445,0.022697,0.001824,0.008412,0.116455,-0.645508,-1.224609
343,2.154074,2.267274,9.212191,-0.024725,0.105456,0.084723,0.020166,0.000292,0.012388,0.110107,-0.647949,-1.219971
344,2.09712,2.299481,9.272183,0.044782,0.084379,0.032617,0.025318,0.016125,0.010371,0.116455,-0.643555,-1.218018
345,2.09348,2.333024,9.322473,0.060057,0.063762,-0.022275,0.016142,0.009279,0.01716,0.112305,-0.647705,-1.222168
346,2.110093,2.237985,9.218821,0.022988,0.133038,0.095203,0.018026,0.01034,0.01706,0.110107,-0.645752,-1.215576
347,2.117192,2.293321,9.267442,0.027516,0.091356,0.034231,0.017749,0.004854,0.01802,0.110107,-0.647949,-1.217773
348,2.095332,2.304848,9.271254,0.050763,0.079316,0.032604,0.016695,0.006537,0.018216,0.112061,-0.645752,-1.219971
349,2.115458,2.263959,9.192397,0.015568,0.102129,0.112679,0.015517,0.002133,0.016756,0.110107,-0.647949,-1.210938
350,2.135174,2.286755,9.238331,0.008723,0.092059,0.05941,0.017902,-0.009463,0.018385,0.114258,-0.639404,-1.222412
351,2.130746,2.351508,9.338814,0.037718,0.051929,-0.050325,0.008528,-0.004844,0.01821,0.10791,-0.643799,-1.222168
352,2.090225,2.254571,9.220954,0.05382,0.114781,0.093528,0.013969,0.00275,0.018208,0.112061,-0.643799,-1.222168
353,2.161902,2.332917,9.25807,-0.006894,0.052374,0.023643,0.009701,-0.000433,0.019665,0.10791,-0.645996,-1.224365
354,2.162102,2.333151,9.257964,-0.005529,0.051034,0.023635,0.005344,0.00689,0.023071,0.10791,-0.650146,-1.224365
355,2.076542,2.319839,9.273511,0.083251,0.059786,0.031012,0.00262,0.003096,0.02307,0.110107,-0.643799,-1.222168
356,2.087034,2.341518,9.271909,0.073855,0.037387,0.024947,-0.002054,0.002064,0.020846,0.110107,-0.645752,-1.219971
357,2.110312,2.275792,9.26719,0.053265,0.09976,0.040243,-0.005145,0.00329,0.023759,0.112061,-0.641602,-1.224609
358,2.123537,2.274279,9.339415,0.058566,0.116804,-0.030551,-0.002118,0.005886,0.018521,0.110107,-0.643799,-1.224365
359,2.081227,2.239796,9.346962,0.103618,0.146981,-0.019991,-0.001186,0.007679,0.027533,0.105957,-0.647949,-1.219727
360,2.085274,2.229689,9.247028,0.077855,0.131879,0.075955,-0.003666,0.006503,0.019975,0.112061,-0.645752,-1.219971
361,2.094108,2.228767,9.295148,0.082134,0.142928,0.028756,0.005239,0.003685,0.028001,0.110107,-0.643799,-1.222168
362,2.104435,2.259919,9.417705,0.101248,0.140369,-0.096858,0.004965,0.011925,0.025972,0.10791,-0.641846,-1.222168
363,2.08116,2.175014,9.222528,0.080825,0.174906,0.113213,0.010413,0.019517,0.025968,0.105713,-0.645996,-1.219727
364,2.07349,2.29383,9.324391,0.11006,0.081559,-0.010068,0.00521,0.014545,0.018412,0.105713,-0.643799,-1.224365
365,2.123702,2.32736,9.365195,0.070969,0.06121,-0.06784,0.007461,0.01058,0.015401,0.10791,-0.641846,-1.222168
366,2.092881,2.198091,9.245269,0.075773,0.156101,0.083523,0.014953,0.018622,0.012683,0.10791,-0.643799,-1.224365
367,2.134555,2.319257,9.313137,0.049443,0.057196,-0.019102,0.011511,0.00861,0.003381,0.109863,-0.641602,-1.219971
368,2.144864,2.287742,9.310755,0.039732,0.087652,-0.011522,0.011088,0.017454,0.003965,0.10376,-0.645996,-1.221924
369,2.032521,2.231858,9.305603,0.148721,0.13231,0.031739,0.011185,0.020669,-0.000976,0.10791,-0.645996,-1.222168
370,2.101032,2.278389,9.268661,0.072682,0.083227,0.040213,0.006102,0.008054,-0.00388,0.112061,-0.639648,-1.222168
371,2.121936,2.268404,9.264707,0.052453,0.092798,0.041725,0.001278,0.007625,-0.003488,0.10376,-0.641846,-1.221924
372,2.147251,2.257856,9.284847,0.033337,0.108296,0.019621,-0.001844,0.005976,-0.007167,0.112061,-0.643799,-1.224609
373,2.256679,2.228293,9.21519,-0.08786,0.127717,0.068274,-0.003391,0.006591,-0.005712,0.105713,-0.643799,-1.226563
374,2.209105,2.290097,9.398228,-0.00018,0.104808,-0.109026,-0.003845,0.022136,-0.000867,0.105713,-0.639648,-1.224365
375,2.092283,2.224202,9.245123,0.078657,0.123752,0.077416,0.002894,0.016925,-0.005621,0.105713,-0.643799,-1.219727
376,2.154398,2.247724,9.234187,0.014753,0.101848,0.068288,-0.002145,0.02092,-0.00494,0.109863,-0.641602,-1.224365
377,2.171575,2.269142,9.28106,0.00838,0.09175,0.015018,-0.001666,0.017835,0.007653,0.110107,-0.643799,-1.219971
378,2.123297,2.235233,9.264802,0.0518,0.115668,0.049228,-0.002039,0.022866,0.010558,0.10791,-0.643799,-1.217529
379,2.076634,2.233155,9.322951,0.110735,0.126097,0.005107,0.000456,0.017353,0.01385,0.101563,-0.641846,-1.221924
380,2.071328,2.233332,9.299156,0.110734,0.118686,0.028714,0.00573,0.011817,0.019467,0.105713,-0.643799,-1.219727
381,2.085826,2.255368,9.321529,0.102991,0.102495,-0.000933,0.00794,0.000811,0.02373,0.10376,-0.644043,-1.219727
382,2.104778,2.190959,9.292589,0.080854,0.158763,0.037675,0.011056,0.002464,0.027407,0.10791,-0.641846,-1.224365
383,2.098118,2.223976,9.318703,0.094974,0.131784,0.006566,0.018157,0.001807,0.030599,0.099365,-0.637939,-1.224121
384,2.132777,2.259388,9.262844,0.050095,0.087017,0.043154,0.023973,-0.006474,0.037279,0.109863,-0.637451,-1.222168
385,2.154053,2.227934,9.3079,0.043521,0.129757,0.003411,0.025303,-0.002659,0.036109,0.110107,-0.645752,-1.224365
386,2.204207,2.231017,9.273648,-0.011018,0.122904,0.023852,0.028702,0.004495,0.038808,0.101563,-0.639893,-1.226318
387,2.252581,2.298139,9.364321,-0.036032,0.082721,-0.088723,0.029164,0.012281,0.041796,0.10791,-0.639648,-1.224365
388,2.166656,2.223317,9.254666,0.02323,0.124584,0.052036,0.030655,0.035935,0.039246,0.10376,-0.641846,-1.221924
389,2.141569,2.290748,9.259258,0.046969,0.059706,0.037109,0.036994,0.032859,0.030816,0.10376,-0.641846,-1.219727
390,2.166129,2.36899,9.354199,0.043595,0.008518,-0.076867,0.029823,0.02651,0.034886,0.105713,-0.641846,-1.222168
391,2.167859,2.274651,9.179161,0.001957,0.060717,0.110783,0.026401,0.036922,0.026828,0.099365,-0.64624,-1.219727
392,2.16677,2.308798,9.253609,0.018753,0.045594,0.032488,0.031746,0.031704,0.020927,0.10791,-0.639648,-1.224365
393,2.144207,2.353159,9.331996,0.057652,0.019799,-0.047202,0.01744,0.029824,0.019477,0.10376,-0.641846,-1.224121
394,2.12239,2.245971,9.210949,0.051266,0.094175,0.097801,0.014664,0.029847,0.017151,0.103516,-0.639893,-1.226563
395,2.077248,2.268047,9.218933,0.096584,0.071373,0.095007,0.014228,0.015338,0.009928,0.10791,-0.641602,-1.215332
396,2.178012,2.335059,9.300654,0.016944,0.031503,-0.020782,0.003201,0.014499,0.009541,0.101563,-0.644043,-1.224121
397,2.16682,2.258343,9.302217,0.029167,0.104276,-0.00132,-0.001917,0.026139,0.00554,0.10376,-0.648193,-1.224121
398,2.152577,2.204205,9.230126,0.025918,0.13784,0.082956,0.000963,0.026417,-0.003653,0.10376,-0.641846,-1.22876
399,2.161056,2.31301,9.30387,0.032451,0.048831,-0.014761,-0.000932,0.022453,-0.010127,0.10376,-0.648193,-1.221924
400,2.238685,2.2484,9.3148,-0.041201,0.11782,-0.026872,-0.011922,0.035363,-0.01356,0.105713,-0.641846,-1.222168
401,2.190951,2.182399,9.248701,-0.01159,0.1618,0.062032,-0.003545,0.042342,-0.013869,0.10376,-0.641846,-1.221924
402,2.186882,2.268942,9.32468,0.005549,0.09363,-0.02964,-0.006199,0.045573,-0.021144,0.10791,-0.641846,-1.224365
403,2.168489,2.192556,9.30283,0.016303,0.160425,0.013387,-0.002771,0.046018,-0.022697,0.10376,-0.641846,-1.224121
404,2.124343,2.213883,9.335618,0.062899,0.143384,-0.01296,0.002877,0.049203,-0.022996,0.10376,-0.641846,-1.22876
405,2.118028,2.182837,9.262191,0.049005,0.156137,0.065266,0.007688,0.049643,-0.023385,0.105713,-0.643799,-1.224365
406,2.17184,2.27154,9.352546,0.013207,0.094506,-0.053305,0.008208,0.033132,-0.019267,0.109863,-0.639648,-1.226563
407,2.132421,2.206744,9.334094,0.045797,0.150473,-0.011645,0.01031,0.049349,-0.009551,0.105713,-0.641846,-1.222168
408,2.077394,2.175204,9.293633,0.087648,0.168412,0.046283,0.022481,0.037961,-0.011228,0.10791,-0.639648,-1.224365
409,2.093405,2.276217,9.29115,0.067846,0.072204,0.020897,0.023356,0.036894,-0.008807,0.110107,-0.643799,-1.222168
410,2.085945,2.278728,9.267258,0.067727,0.06488,0.044522,0.025491,0.03261,-0.00027,0.10791,-0.639648,-1.224365
411,2.058248,2.23733,9.2465,0.089472,0.099819,0.080174,0.029143,0.028614,-0.002086,0.110107,-0.645752,-1.222168
412,2.086864,2.306047,9.241477,0.058409,0.035337,0.062144,0.025922,0.023741,-0.000817,0.10791,-0.643799,-1.224365
413,2.09612,2.362357,9.314074,0.064848,-0.000928,-0.022058,0.020098,0.021177,0.00208,0.105713,-0.643799,-1.222168
414,2.043687,2.243769,9.198279,0.090831,0.084027,0.127431,0.013395,0.019685,0.002551,0.109863,-0.641602,-1.222168
415,2.085853,2.310764,9.265489,0.064629,0.037562,0.038533,0.014387,0.008044,0.003097,0.10791,-0.641846,-1.226563
416,2.157412,2.334245,9.30284,0.003839,0.027725,-0.01814,-0.000115,0.01057,0.00188,0.105713,-0.639648,-1.222168
417,2.117966,2.213808,9.259488,0.034677,0.130726,0.060429,0.002754,0.016687,0.005825,0.10791,-0.645752,-1.219971
418,2.131232,2.236018,9.282107,0.026835,0.114275,0.030783,0.005909,0.011617,0.00528,0.109863,-0.639648,-1.224365
419,2.138105,2.236192,9.330446,0.031613,0.124958,-0.016486,0.005136,0.01882,0.004463,0.105713,-0.639648,-1.222168
420,2.126009,2.214815,9.332335,0.043874,0.144629,-0.010497,0.011661,0.020935,0.0066,0.105713,-0.641846,-1.224365
421,2.119985,2.216229,9.308399,0.043949,0.137509,0.013124,0.01886,0.023501,0.004864,0.105713,-0.637695,-1.222168
422,2.125897,2.217934,9.356593,0.048544,0.147989,-0.034152,0.024503,0.026694,0.004571,0.114258,-0.641602,-1.224609
423,2.107862,2.25311,9.334566,0.059602,0.108956,-0.01779,0.030821,0.030337,0.000404,0.103516,-0.639893,-1.221924
424,2.082523,2.23432,9.263919,0.067098,0.110871,0.059099,0.033574,0.030336,0.002731,0.10791,-0.639648,-1.222168
425,2.119279,2.303473,9.306845,0.039413,0.058395,-0.006158,0.036399,0.023583,0.000843,0.109863,-0.641602,-1.219971
426,2.138563,2.295957,9.302977,0.019019,0.067913,-0.004913,0.028746,0.029917,0.003093,0.10791,-0.645996,-1.224365
427,2.139056,2.26611,9.252832,0.00648,0.086832,0.049587,0.027688,0.031616,0.003267,0.114258,-0.643555,-1.224609
428,2.075309,2.300111,9.287881,0.074949,0.058721,0.022228,0.02776,0.024865,-0.000948,0.105713,-0.641846,-1.217529
429,2.098987,2.291701,9.308233,0.056381,0.074322,-0.000168,0.018354,0.019546,-0.000463,0.110107,-0.645752,-1.219971
430,2.089718,2.23869,9.259924,0.054455,0.11414,0.060311,0.013087,0.028009,0.00042,0.110107,-0.645752,-1.219971
431,2.087579,2.240145,9.260054,0.056092,0.112955,0.060306,0.018025,0.017863,-0.001809,0.10791,-0.647949,-1.222168
432,2.090383,2.273973,9.358405,0.074979,0.103244,-0.041455,0.012983,0.021876,-0.001184,0.110107,-0.643799,-1.224365
433,2.092303,2.188475,9.308198,0.062285,0.175178,0.02621,0.019771,0.029525,-5.8e-05,0.10791,-0.643799,-1.217529
434,2.078103,2.222796,9.310354,0.074688,0.141878,0.019,0.017516,0.030603,-0.00366,0.114258,-0.643555,-1.219971
435,2.084826,2.301097,9.309098,0.065605,0.066672,-0.000166,0.017237,0.025088,-0.002651,0.109863,-0.641602,-1.217773
436,2.069428,2.258526,9.360848,0.092004,0.119143,-0.035474,0.015449,0.030169,-0.000962,0.112061,-0.645752,-1.217773
437,2.065778,2.195305,9.212642,0.06187,0.146575,0.120719,0.021037,0.023401,-0.000495,0.112061,-0.643555,-1.219971
438,2.105729,2.317638,9.280107,0.03579,0.046759,0.018686,0.014705,0.020649,-0.005245,0.110107,-0.643799,-1.215576
439,2.126765,2.286113,9.350718,0.031429,0.095128,-0.045068,0.007744,0.026536,0.002027,0.112061,-0.643799,-1.226807
440,2.062581,2.199159,9.237412,0.067989,0.14857,0.09705,0.016904,0.036332,0.001785,0.116455,-0.645508,-1.224609
441,2.079708,2.299097,9.2345,0.048017,0.052328,0.071949,0.011083,0.020839,-0.001105,0.112061,-0.645752,-1.215576
442,2.10785,2.32201,9.353486,0.046899,0.059245,-0.052238,0.009341,0.022091,0.002939,0.112061,-0.645752,-1.224609
443,2.099823,2.213744,9.305203,0.045021,0.152315,0.021288,0.010346,0.024231,0.000406,0.10376,-0.644043,-1.219727
444,2.106583,2.259055,9.229737,0.019734,0.091318,0.08025,0.016208,0.022983,-0.000136,0.110107,-0.643799,-1.224365
445,2.125618,2.336716,9.300728,0.015631,0.03366,-0.00977,0.006905,0.023794,0.001937,0.105713,-0.641846,-1.219727
446,2.08825,2.271167,9.28209,0.047964,0.089543,0.031794,0.006168,0.027185,0.003447,0.10376,-0.644043,-1.221924
447,2.028938,2.216486,9.266936,0.102294,0.134685,0.07221,0.014412,0.028075,0.001544,0.112061,-0.645752,-1.213379
448,2.086833,2.327636,9.306852,0.05282,0.039843,-0.004943,0.006726,0.011497,-0.001239,0.10791,-0.637695,-1.222168
449,2.144572,2.274233,9.322255,0.001618,0.098321,-0.019204,-0.001889,0.011863,0.005873,0.112061,-0.641602,-1.224609
450,2.086326,2.218762,9.307044,0.055744,0.143267,0.021207,0.006075,0.021041,0.001856,0.114258,-0.647705,-1.226807
451,2.044658,2.208036,9.264243,0.086644,0.140511,0.073334,0.011302,0.016402,-0.001361,0.10791,-0.643799,-1.215332
452,2.085255,2.329534,9.331706,0.060677,0.040531,-0.028575,0.006035,0.011058,0.002632,0.118408,-0.639404,-1.222412
453,2.103123,2.264892,9.304063,0.038748,0.09746,0.009247,0.005849,0.011685,0.005237,0.110107,-0.649902,-1.222168
454,2.066828,2.199595,9.285113,0.071058,0.153375,0.050784,0.012673,0.016406,-0.000194,0.112061,-0.643799,-1.222168
455,2.081345,2.299416,9.257775,0.049304,0.051292,0.049458,0.013223,0.013643,0.000902,0.112061,-0.645752,-1.219971
456,2.145872,2.301379,9.3214,0.001449,0.068245,-0.025246,0.008274,0.009995,0.006234,0.105713,-0.643799,-1.224365
457,2.09819,2.268823,9.304219,0.044898,0.092355,0.009223,0.014864,0.019176,0.001045,0.114258,-0.645752,-1.219971
458,2.052613,2.258691,9.23714,0.073804,0.083644,0.085035,0.016739,0.020249,0.000946,0.112061,-0.643799,-1.229004
459,2.097796,2.325906,9.328554,0.04977,0.042585,-0.027446,0.006346,0.012762,0.003965,0.116211,-0.641357,-1.220215
460,2.126697,2.228655,9.299286,0.016705,0.131368,0.017335,0.004739,0.017223,0.003035,0.112061,-0.641602,-1.219971
461,2.057001,2.206245,9.285718,0.08193,0.144523,0.050734,0.010731,0.018299,0.006446,0.110107,-0.643799,-1.222168
462,2.06524,2.28359,9.28419,0.072533,0.069103,0.03178,0.007083,0.009372,0.002456,0.112061,-0.643799,-1.222168
463,2.101355,2.240918,9.303157,0.043227,0.116664,0.016226,0.002591,0.010625,0.004156,0.114258,-0.645752,-1.226807
464,2.079723,2.197262,9.306641,0.066416,0.157354,0.028128,0.008266,0.010004,0.00623,0.110107,-0.643799,-1.226563
465,2.095728,2.241864,9.279212,0.044542,0.108319,0.039863,0.007526,0.013398,0.007736,0.116455,-0.645508,-1.220215
466,2.13483,2.286604,9.396456,0.03305,0.093808,-0.09032,0.006704,0.010633,0.007664,0.10791,-0.645996,-1.222168
467,2.083175,2.220862,9.281147,0.058494,0.126798,0.045802,0.007794,0.018933,0.006705,0.112061,-0.643555,-1.219971
468,2.077953,2.254406,9.331252,0.074392,0.104987,-0.008511,0.013845,0.017054,0.00357,0.112061,-0.643799,-1.226807
469,2.103491,2.321388,9.302227,0.04161,0.034933,-0.002709,0.008249,0.02384,0.003067,0.112061,-0.643799,-1.224609
470,2.106356,2.234667,9.252488,0.028566,0.107063,0.064522,0.005408,0.016799,0.008065,0.114258,-0.637451,-1.219971
471,2.147823,2.301361,9.319899,0.002912,0.060095,-0.024299,0.006717,0.011515,-0.001252,0.10376,-0.644043,-1.224121
472,2.115016,2.235471,9.325307,0.037026,0.1218,-0.006466,-0.00274,0.022952,0.002614,0.109863,-0.639648,-1.219971
473,2.112806,2.23527,9.325856,0.038675,0.120608,-0.006474,-0.001542,0.024462,-0.002527,0.109863,-0.639648,-1.222168
474,2.117047,2.224498,9.226501,0.011149,0.107196,0.08916,-0.000487,0.022768,-0.002694,0.112061,-0.639648,-1.222168
475,2.133238,2.27922,9.34758,0.021807,0.081737,-0.042039,-0.002318,0.017862,-0.00023,0.10791,-0.645996,-1.222168
476,2.100279,2.212909,9.353089,0.055938,0.143446,-0.024218,-0.002197,0.020194,0.00371,0.10791,-0.639648,-1.222168
477,2.087698,2.158345,9.281137,0.052158,0.178059,0.059636,0.007493,0.027254,0.004564,0.112061,-0.641602,-1.222168
478,2.10168,2.290382,9.328068,0.046334,0.061048,-0.019397,0.010347,0.020464,0.00273,0.10791,-0.639648,-1.224365
479,2.094079,2.214298,9.35415,0.060711,0.139672,-0.024244,0.002534,0.023609,0.00989,0.110107,-0.647949,-1.219971
480,2.052335,2.203351,9.311281,0.091192,0.136852,0.028019,0.015078,0.023877,0.008914,0.109863,-0.637451,-1.219971
481,2.07123,2.248779,9.308014,0.071047,0.093607,0.016141,0.017888,0.020922,0.004712,0.114258,-0.643555,-1.219971
482,2.151756,2.295338,9.344492,-6.2e-05,0.062636,-0.04704,0.017186,0.020488,0.008581,0.109863,-0.639648,-1.226563
483,2.072062,2.197464,9.33222,0.076005,0.149833,0.005323,0.022763,0.027547,0.005919,0.10791,-0.645752,-1.219971
484,2.036634,2.242818,9.337244,0.11011,0.105409,-0.002556,0.026942,0.024595,0.002889,0.112061,-0.641602,-1.219971
485,2.087576,2.300528,9.328738,0.057292,0.052149,-0.01939,0.021509,0.020748,0.000572,0.10791,-0.641846,-1.222168
486,2.042876,2.236227,9.261445,0.085896,0.096696,0.069398,0.021578,0.026926,0.002133,0.109863,-0.639648,-1.222168
487,2.050362,2.314892,9.259641,0.076593,0.021419,0.050652,0.023617,0.017358,0.000243,0.109863,-0.641602,-1.224365
488,2.06699,2.338916,9.306018,0.070856,0.010436,-0.002598,0.015498,0.00966,-0.002041,0.10791,-0.639648,-1.222168
489,2.153067,2.26489,9.218672,-0.031019,0.06825,0.079049,0.007015,0.01324,6.7e-05,0.110107,-0.643799,-1.219971
490,2.156062,2.276739,9.391053,0.00528,0.0958,-0.087555,0.005292,0.01537,-0.004815,0.109863,-0.641602,-1.222168
491,2.019858,2.274951,9.239176,0.102686,0.052638,0.086214,0.006638,0.02923,-0.006836,0.112061,-0.641602,-1.224609
492,2.053466,2.287021,9.258669,0.073335,0.046968,0.057558,0.001498,0.017064,-0.007,0.114258,-0.639404,-1.219971
493,2.099586,2.266223,9.276373,0.033327,0.073534,0.035745,0.001632,0.005548,0.000129,0.10791,-0.643799,-1.226563
494,2.167878,2.234788,9.290705,-0.028616,0.110951,0.014829,0.00139,0.010022,0.000354,0.109863,-0.637451,-1.222168
495,2.134474,2.2233,9.295997,0.005697,0.119755,0.019821,-0.001474,0.016825,0.00217,0.110107,-0.643799,-1.222168
496,2.111144,2.234128,9.299593,0.028919,0.107349,0.018897,0.008133,0.017726,0.001463,0.112061,-0.645752,-1.222168
497,2.069498,2.256058,9.33056,0.075977,0.089764,-0.006587,0.00789,0.022202,0.001686,0.114258,-0.643555,-1.224609
498,2.065059,2.202238,9.306681,0.075597,0.135804,0.029821,0.011613,0.014335,0.002314,0.114258,-0.641602,-1.226807
499,2.106477,2.236838,9.3,0.033659,0.103612,0.018872,0.014036,0.012642,0.003326,0.110107,-0.643799,-1.219971
500,2.109005,2.238184,9.3241,0.037026,0.107917,-0.004807,0.014344,0.014349,0.004657,0.112061,-0.643799,-1.222168
501,2.075297,2.227947,9.329127,0.071344,0.116697,0.00022,0.01324,0.019891,0.002437,0.109863,-0.641602,-1.222168
502,2.016289,2.22819,9.313245,0.125311,0.108582,0.028042,0.016059,0.012224,0.00954,0.10791,-0.639648,-1.226563
503,2.064874,2.284918,9.280573,0.070522,0.049716,0.034847,0.017006,0.008184,0.005446,0.112061,-0.643799,-1.224609
504,2.064315,2.28607,9.280414,0.071974,0.048333,0.034851,0.01033,0.006658,0.005894,0.112061,-0.643799,-1.224609
505,2.046762,2.242786,9.307893,0.097385,0.094836,0.023014,0.007352,0.006424,0.015063,0.109863,-0.639648,-1.224365
506,2.071663,2.254301,9.254559,0.062294,0.072191,0.065306,0.005613,-0.001471,0.011005,0.109863,-0.641602,-1.226563
507,2.137124,2.255512,9.318634,0.015336,0.089055,-0.00991,-0.001063,-0.002997,0.011453,0.112061,-0.641602,-1.224609
508,2.162957,2.211715,9.265614,-0.019668,0.119531,0.045037,-0.002714,0.005313,0.00812,0.109863,-0.637451,-1.219971
509,2.131033,2.200096,9.270566,0.014645,0.128303,0.050083,0.002616,-0.007029,0.009707,0.109863,-0.639648,-1.219971
510,2.17122,2.244572,9.387655,0.004027,0.1131,-0.080116,-0.001988,-0.008115,0.007458,0.110107,-0.643799,-1.224365
511,2.194484,2.124861,9.384739,-0.015834,0.229183,-0.053991,0.006717,0.016874,0.009188,0.105713,-0.637695,-1.219727
512,2.122542,2.212018,9.370498,0.048811,0.135856,-0.045487,0.015337,0.030356,-0.0011,0.10791,-0.641846,-1.219971
513,2.061444,2.234115,9.280763,0.086084,0.089995,0.047551,0.017769,0.033996,0.010375,0.109863,-0.637451,-1.222168
514,2.055054,2.235413,9.256886,0.085575,0.083002,0.071227,0.016844,0.028879,0.006379,0.112061,-0.643799,-1.224609
515,2.049075,2.26942,9.306851,0.101971,0.060965,0.017161,0.010345,0.016691,0.005057,0.10791,-0.637695,-1.22876
516,2.047752,2.270154,9.306964,0.103426,0.059573,0.017167,0.007964,0.014547,0.006422,0.103516,-0.637695,-1.22876
517,2.035999,2.270275,9.234589,0.099113,0.041531,0.088207,0.006883,0.006222,0.007414,0.10791,-0.641846,-1.226563
518,2.086502,2.249389,9.276483,0.061073,0.073535,0.042465,-0.004189,0.002967,0.00301,0.109863,-0.637451,-1.226563
519,2.150221,2.304812,9.340726,0.014148,0.037216,-0.045466,-0.004335,0.004459,-0.003303,0.10791,-0.641846,-1.226563
520,2.121918,2.227221,9.222108,0.016701,0.081932,0.091405,-0.002011,0.005752,0.004243,0.109863,-0.639648,-1.222168
521,2.106998,2.237808,9.273783,0.044071,0.080868,0.043255,-0.003173,0.005105,0.00047,0.10791,-0.639648,-1.222168
522,2.117382,2.237797,9.346431,0.051551,0.096305,-0.027785,-0.004635,0.008087,0.005826,0.112061,-0.639648,-1.222168
523,2.156183,2.216095,9.316185,0.007727,0.111706,-0.002554,-0.001481,0.016851,0.002137,0.10791,-0.637695,-1.22876
524,2.150961,2.216101,9.292376,0.007177,0.104736,0.021111,0.006353,0.019025,0.005465,0.109863,-0.639648,-1.224365
525,2.149251,2.216612,9.29265,0.008822,0.103551,0.0211,0.00686,0.020096,0.004194,0.110107,-0.643799,-1.226563
526,2.094186,2.162097,9.301193,0.064847,0.154127,0.038,0.013838,0.023334,0.005079,0.10791,-0.639648,-1.226563
527,2.112967,2.207525,9.297937,0.044605,0.110912,0.02621,0.019146,0.024857,0.003459,0.105713,-0.639648,-1.22876
528,2.139781,2.220597,9.26887,0.011373,0.094043,0.044745,0.022358,0.015911,0.005376,0.105713,-0.641846,-1.222168
529,2.108934,2.265633,9.2976,0.047556,0.055204,0.013669,0.016496,0.017166,0.005876,0.103516,-0.637695,-1.226563
530,2.103994,2.266883,9.273413,0.046999,0.048257,0.037351,0.015886,0.013748,0.003217,0.107666,-0.633545,-1.224365
531,2.092448,2.245898,9.275122,0.059586,0.068082,0.04324,0.007341,0.011144,0.003755,0.105713,-0.639648,-1.226563
532,2.063025,2.256823,9.229951,0.078682,0.044446,0.089872,0.008683,0.001117,0.005774,0.10791,-0.639648,-1.222168
533,2.106227,2.269027,9.297386,0.053796,0.050059,0.013674,0.001501,-0.00148,0.007487,0.105713,-0.637695,-1.224365
534,2.117765,2.236462,9.29586,0.044499,0.080821,0.020283,0.003167,0.000239,0.00999,0.10791,-0.639648,-1.22876
535,2.093708,2.192597,9.274963,0.065987,0.116098,0.055731,0.006241,-0.007223,0.0056,0.10791,-0.639648,-1.219971
536,2.158214,2.248721,9.338899,0.019069,0.079487,-0.03226,0.004324,0.000891,0.013761,0.101563,-0.637695,-1.226318
537,2.169688,2.216161,9.337386,0.009957,0.110432,-0.025676,0.001805,0.000233,0.008815,0.109863,-0.637451,-1.226563
538,2.192426,2.118026,9.260603,-0.027069,0.188823,0.065116,0.006118,0.00965,0.008891,0.103516,-0.639893,-1.224121
539,2.165096,2.216814,9.313275,0.011016,0.102312,-0.002016,0.011123,0.009458,0.005945,0.112061,-0.637451,-1.226807
540,2.156626,2.250219,9.338905,0.025331,0.074338,-0.032286,0.005265,0.010712,0.006446,0.103516,-0.639893,-1.221924
541,2.175271,2.152165,9.238052,-0.013635,0.147432,0.082153,0.007683,0.009018,0.007465,0.105713,-0.641846,-1.226563
542,2.202405,2.196941,9.283043,-0.029892,0.115137,0.023006,0.00553,0.016266,0.005385,0.10791,-0.637695,-1.222168
543,2.22859,2.241501,9.328312,-0.045977,0.083,-0.036137,0.001771,0.027992,0.002339,0.105713,-0.635498,-1.22876
544,2.194269,2.175577,9.334132,-0.011605,0.144647,-0.018534,0.00026,0.034829,0.005297,0.10791,-0.639648,-1.22876
545,2.129703,2.175111,9.294482,0.040231,0.131132,0.033356,0.013465,0.039375,-0.001902,0.105713,-0.639648,-1.22876
546,2.146551,2.253481,9.365453,0.03685,0.072144,-0.056001,0.0138,0.037253,0.001809,0.099365,-0.635742,-1.228516
547,2.125297,2.21081,9.393634,0.062554,0.118479,-0.067949,0.011224,0.045802,0.004913,0.10791,-0.637695,-1.226563
548,2.056936,2.177818,9.255871,0.095001,0.114854,0.085262,0.021628,0.049498,0.004276,0.105713,-0.639648,-1.224365
549,2.051348,2.267479,9.329883,0.113514,0.044874,-0.004711,0.021054,0.042237,0.004008,0.10791,-0.637695,-1.222168
550,2.040527,2.247598,9.356131,0.128096,0.070016,-0.022521,0.022196,0.042902,0.007774,0.103516,-0.635742,-1.224121
551,2.015807,2.227096,9.285666,0.134326,0.073309,0.054429,0.023581,0.037552,-0.001496,0.105713,-0.639648,-1.224365
552,2.040961,2.273558,9.330682,0.118142,0.040921,-0.004674,0.022028,0.024299,0.003179,0.10791,-0.637695,-1.224365
553,2.070874,2.286448,9.32605,0.087111,0.029878,-0.009893,0.012392,0.027242,0.001462,0.112061,-0.637451,-1.222168
554,2.087662,2.222146,9.299433,0.06498,0.087346,0.026786,0.012339,0.021036,-6.6e-05,0.109863,-0.635498,-1.222168
555,2.045566,2.266086,9.255683,0.09476,0.031839,0.067065,0.010644,0.023157,-0.004963,0.10791,-0.639648,-1.222168
556,2.111585,2.268318,9.344817,0.050457,0.053757,-0.032323,0.002143,0.016699,-0.002039,0.105713,-0.637695,-1.219727
557,2.10788,2.180459,9.247584,0.033012,0.115978,0.081253,0.000747,0.020536,-0.005612,0.103516,-0.637695,-1.226563
558,2.152393,2.214289,9.265626,-0.00699,0.089261,0.046435,0.003414,0.014348,-0.004784,0.103516,-0.637695,-1.22876
559,2.203567,2.227191,9.406271,-0.025039,0.111116,-0.100992,-0.001162,0.023305,-0.007916,0.107666,-0.635498,-1.222168
560,2.127583,2.116345,9.270346,0.018359,0.181899,0.070439,0.004405,0.030398,-0.0106,0.112061,-0.633301,-1.219971
561,2.156216,2.183146,9.265695,-0.012935,0.117705,0.052848,0.009451,0.026362,-0.011138,0.112061,-0.641602,-1.226807
562,2.206305,2.218008,9.332291,-0.048591,0.101926,-0.029378,0.003849,0.033184,-0.011732,0.109863,-0.633301,-1.222168
563,2.139122,2.162675,9.268571,0.00116,0.136174,0.058669,0.005245,0.039416,-0.009037,0.10791,-0.637695,-1.22876
564,2.096255,2.151733,9.225571,0.030952,0.133695,0.111318,0.00923,0.03709,-0.009428,0.109863,-0.637451,-1.226563
565,2.148536,2.241565,9.316017,-0.00259,0.070336,-0.006887,0.008753,0.032175,-0.00576,0.10791,-0.637695,-1.22876
566,2.112762,2.230944,9.321308,0.03158,0.078764,-0.001611,0.004797,0.040731,-0.003861,0.109863,-0.639648,-1.224365
567,2.085758,2.154196,9.227376,0.0357,0.129964,0.111283,0.008706,0.036037,-0.008167,0.105713,-0.641846,-1.224365
568,2.105945,2.232739,9.322421,0.034733,0.076213,-0.001621,0.011492,0.028362,-0.00101,0.114014,-0.635254,-1.222412
569,2.10337,2.233642,9.322786,0.03638,0.07502,-0.001624,0.006618,0.025539,-0.004599,0.112061,-0.635498,-1.224609
570,2.073079,2.189835,9.278224,0.055418,0.104764,0.057461,0.006472,0.02856,0.001912,0.109863,-0.639648,-1.226563
571,2.078768,2.157753,9.253117,0.044145,0.130337,0.087545,0.010427,0.020007,1.5e-05,0.114258,-0.639404,-1.229004
572,2.106168,2.291076,9.39584,0.047357,0.034171,-0.084958,0.004825,0.016757,0.000295,0.10791,-0.641846,-1.219971
573,2.081956,2.159564,9.301964,0.051711,0.138649,0.040129,0.009434,0.02409,0.004072,0.10791,-0.639648,-1.224365
574,2.069769,2.159834,9.229658,0.046535,0.121023,0.111214,0.013936,0.022831,0.002419,0.10791,-0.637695,-1.226563
575,2.11082,2.315728,9.394811,0.041199,0.009401,-0.090789,0.010312,0.019183,0.008925,0.112061,-0.641602,-1.229004
576,2.069055,2.16194,9.254316,0.05189,0.1239,0.087499,0.011618,0.033131,0.006805,0.107666,-0.633545,-1.226563
577,2.101156,2.229377,9.273765,0.022778,0.065134,0.046269,0.017111,0.027792,0.001095,0.109863,-0.633301,-1.224365
578,2.064066,2.307381,9.351895,0.074058,0.004349,-0.038039,0.013406,0.031854,0.002788,0.112061,-0.637451,-1.229004
579,2.069953,2.221033,9.327363,0.063092,0.083164,0.004196,0.011537,0.030774,0.002879,0.112061,-0.637451,-1.222168
580,2.03209,2.231685,9.233851,0.077244,0.048935,0.098499,0.011978,0.029477,-0.002312,0.112061,-0.639648,-1.229004
581,2.053227,2.255684,9.329262,0.076908,0.048372,-0.002135,0.007732,0.026237,-0.000855,0.10791,-0.639648,-1.222168
582,2.033764,2.233742,9.282946,0.084885,0.057197,0.051109,0.005128,0.024733,0.003104,0.112061,-0.637451,-1.229004
583,2.065176,2.19103,9.279159,0.054174,0.09945,0.057918,0.006649,0.011635,-0.001321,0.107666,-0.635498,-1.222168
584,2.066266,2.246366,9.303039,0.05761,0.050249,0.022064,0.002617,0.017827,-0.003359,0.10791,-0.639648,-1.222168
585,2.033307,2.180705,9.308335,0.092267,0.112049,0.039568,0.00327,0.013564,0.004097,0.109863,-0.637451,-1.229004
586,2.068268,2.192572,9.32808,0.063374,0.106302,0.0105,0.003218,0.0011,0.001088,0.10791,-0.637695,-1.224365
587,2.107615,2.150337,9.372418,0.037255,0.159338,-0.030149,0.007525,0.006721,0.003541,0.109863,-0.635498,-1.226563
588,2.11883,2.139723,9.296972,0.010237,0.153045,0.041402,0.012896,0.010633,0.005855,0.109863,-0.633301,-1.224365
589,2.145719,2.185461,9.341861,-0.005545,0.120621,-0.017681,0.016375,0.007226,0.006758,0.109863,-0.633301,-1.224365
590,2.166463,2.176027,9.338988,-0.025706,0.130472,-0.01725,0.012081,0.017928,0.004901,0.10791,-0.637695,-1.226563
591,2.158787,2.122326,9.291253,-0.028301,0.17177,0.042237,0.021691,0.02509,0.005751,0.114258,-0.639404,-1.222412
592,2.158443,2.23368,9.314373,-0.025202,0.069321,-0.005678,0.021112,0.021643,0.003111,0.109863,-0.637451,-1.229004
593,2.167472,2.202735,9.313374,-0.034208,0.100371,0.000569,0.017754,0.029815,0.010024,0.114258,-0.637451,-1.226807
594,2.108746,2.094086,9.297956,0.020044,0.19861,0.053377,0.018512,0.036477,0.007652,0.112061,-0.637451,-1.224609
595,2.060563,2.226197,9.302681,0.064293,0.06845,0.028367,0.019511,0.032391,0.003601,0.107666,-0.635498,-1.222168
596,2.129694,2.196553,9.342927,0.005454,0.111542,-0.017788,0.019317,0.029194,0.008602,0.109863,-0.635498,-1.226563
597,2.060202,2.141796,9.254309,0.052512,0.140672,0.094076,0.02196,0.043188,0.007628,0.109863,-0.637451,-1.226563
598,2.044071,2.209968,9.329309,0.082296,0.090843,0.010486,0.024383,0.031401,0.00959,0.109863,-0.641602,-1.224365
599,2.069281,2.201966,9.375141,0.066956,0.111594,-0.036521,0.021928,0.036963,0.006122,0.114258,-0.639404,-1.222412
600,2.077885,2.192412,9.300092,0.039791,0.105465,0.034995,0.026217,0.042608,0.008561,0.114258,-0.639404,-1.226807
601,2.019346,2.248816,9.306823,0.095392,0.049501,0.027988,0.028194,0.038278,-0.001943,0.114014,-0.635254,-1.217773
602,2.010875,2.284567,9.356433,0.112215,0.02655,-0.025625,0.023397,0.037822,-0.001629,0.109863,-0.637451,-1.222168
603,2.039197,2.209542,9.255046,0.061526,0.079796,0.082007,0.024723,0.031599,-0.001938,0.112061,-0.637451,-1.224609
604,2.03912,2.266737,9.278555,0.064995,0.030507,0.046289,0.022275,0.020804,-0.005963,0.114258,-0.639404,-1.226807
605,2.021317,2.279969,9.32972,0.093009,0.0287,-0.001496,0.014802,0.026555,-0.006528,0.112061,-0.637451,-1.224609
606,1.956537,2.225266,9.264931,0.14214,0.063052,0.086711,0.017786,0.011965,-0.003396,0.109863,-0.639648,-1.224365
607,2.045322,2.23911,9.277475,0.059131,0.05901,0.052487,0.011817,0.002181,-0.012238,0.109863,-0.637451,-1.217773
608,2.11185,2.317787,9.291999,-0.00274,-0.009722,0.005895,0.006195,0.002768,-0.014379,0.112061,-0.635498,-1.226807
609,2.101449,2.241844,9.294451,0.01033,0.06334,0.023681,0.00034,0.004013,-0.01393,0.112061,-0.633301,-1.226807
610,2.144013,2.221194,9.289173,-0.031471,0.084493,0.024373,0.006118,0.010491,-0.019226,0.114258,-0.637451,-1.231201
611,2.089245,2.255614,9.394242,0.04467,0.070691,-0.071519,0.005256,0.021661,-0.022629,0.114014,-0.633301,-1.224609
612,2.087003,2.243227,9.22235,0.007786,0.043439,0.094795,0.003653,0.009802,-0.024186,0.116211,-0.637451,-1.224609
613,2.174065,2.235602,9.309605,-0.056976,0.076318,-0.004856,0.001188,0.009111,-0.029146,0.109863,-0.635498,-1.229004
614,2.18564,2.258544,9.332446,-0.064105,0.05924,-0.034392,-0.000611,0.022914,-0.022188,0.116211,-0.635254,-1.226807
615,2.093753,2.192271,9.320929,0.02257,0.114137,0.011869,0.004837,0.031536,-0.031227,0.116211,-0.641602,-1.226807
616,2.065435,2.203533,9.299884,0.0433,0.096182,0.035249,0.003246,0.02593,-0.031305,0.109863,-0.635498,-1.224365
617,2.05434,2.237577,9.325423,0.057959,0.06799,0.005415,0.006211,0.021453,-0.029106,0.116211,-0.637207,-1.222412
618,2.041201,2.216678,9.327451,0.07051,0.087607,0.011216,0.004626,0.022097,-0.027703,0.10791,-0.637695,-1.224365
619,2.011571,2.172888,9.282738,0.089389,0.117824,0.070243,0.004667,0.018236,-0.025279,0.114258,-0.637451,-1.222412
620,2.001501,2.206902,9.30803,0.103933,0.089453,0.040428,0.007681,0.009891,-0.020649,0.114014,-0.635254,-1.226807
621,2.035881,2.219496,9.327943,0.075322,0.083836,0.011218,0.0008,0.00272,-0.019129,0.114258,-0.639404,-1.224609
622,2.055055,2.154505,9.301846,0.053203,0.141771,0.047107,0.006044,0.001976,-0.005464,0.116211,-0.635254,-1.218018
623,2.094286,2.188391,9.271488,0.008684,0.104637,0.059506,0.008881,0.002838,-0.01202,0.116211,-0.635254,-1.226807
624,2.088418,2.222669,9.320778,0.025653,0.08151,0.005988,0.006275,0.007576,-0.006579,0.116211,-0.635254,-1.226807
625,2.112458,2.213223,9.342395,0.008108,0.096879,-0.017457,0.007665,0.009985,-0.001488,0.114014,-0.633301,-1.222412
626,2.113221,2.180426,9.268907,-0.008328,0.112025,0.059741,0.01296,0.017798,-0.001606,0.112061,-0.633301,-1.226807
627,2.130251,2.259409,9.339166,-0.010831,0.052318,-0.029063,0.011889,0.019514,-0.001479,0.116211,-0.633301,-1.229248
628,2.132842,2.227092,9.290172,-0.024828,0.072712,0.024411,0.010486,0.035878,-0.002145,0.116211,-0.637451,-1.226807
629,2.135219,2.229074,9.339194,-0.018261,0.08201,-0.023034,0.011969,0.042984,-0.008417,0.114014,-0.633301,-1.222412
630,2.135079,2.251257,9.289833,-0.032736,0.049163,0.018596,0.006935,0.049427,-0.004045,0.120361,-0.635254,-1.227051
631,2.043333,2.239554,9.302026,0.05589,0.055976,0.029424,0.000891,0.059889,-0.014814,0.114258,-0.639404,-1.229004
632,2.07592,2.252102,9.347418,0.029657,0.055403,-0.023556,-0.002361,0.056394,-0.019822,0.120605,-0.639404,-1.231445
633,2.044642,2.228039,9.229249,0.029947,0.04902,0.100816,-0.007789,0.053937,-0.028485,0.114014,-0.633301,-1.229004
634,2.003456,2.304459,9.307533,0.081654,-0.012638,0.017397,-0.018274,0.049262,-0.038154,0.116211,-0.635254,-1.229248
635,1.983328,2.260306,9.360687,0.11038,0.038574,-0.018455,-0.020211,0.043399,-0.045883,0.120361,-0.633057,-1.229248
636,1.928361,2.245384,9.22075,0.129597,0.015476,0.129428,-0.022961,0.032332,-0.057552,0.118408,-0.637207,-1.229248
637,2.04334,2.356712,9.303709,0.031609,-0.068076,0.000313,-0.034437,0.004317,-0.072996,0.120361,-0.633057,-1.224854
638,1.98252,2.332643,9.36145,0.10347,-0.039732,-0.035971,-0.038853,0.004047,-0.08424,0.118408,-0.637207,-1.229248
639,1.893543,2.317894,9.37337,0.192087,-0.033009,-0.025007,-0.044354,0.005507,-0.09537,0.116211,-0.633301,-1.226807
640,1.740984,2.299955,9.319554,0.327346,-0.043787,0.062516,-0.059773,0.008155,-0.109658,0.116211,-0.633301,-1.229248
641,1.628837,2.368414,9.234999,0.415922,-0.143546,0.150695,-0.076069,-0.046178,-0.121851,0.114014,-0.631104,-1.231201
642,1.709862,2.332448,9.325202,0.362644,-0.090094,0.056474,-0.100641,-0.086526,-0.125431,0.116211,-0.631104,-1.224609
643,1.769999,2.292261,9.221259,0.289309,-0.078086,0.151986,-0.112562,-0.114566,-0.129512,0.109619,-0.625,-1.226807
644,1.933135,2.353975,9.324471,0.161676,-0.11297,0.00529,-0.134755,-0.145455,-0.142038,0.115967,-0.625,-1.229248
645,1.880213,2.320012,9.33319,0.228651,-0.09494,0.016526,-0.14739,-0.172889,-0.151324,0.111816,-0.62085,-1.229004
646,1.846292,2.307591,9.388635,0.289517,-0.087663,-0.025437,-0.15652,-0.201279,-0.155831,0.11377,-0.618652,-1.229004
647,1.843958,2.272537,9.317126,0.29458,-0.083492,0.051558,-0.169483,-0.248893,-0.171168,0.11377,-0.62085,-1.240234
648,1.979058,2.339449,9.275539,0.173319,-0.160917,0.046966,-0.185761,-0.308426,-0.177939,0.105225,-0.61084,-1.235596
649,2.015326,2.347011,9.272085,0.163847,-0.183137,0.041245,-0.208884,-0.349712,-0.188864,0.105225,-0.61084,-1.235596
650,1.865505,2.204185,9.369417,0.369583,-0.057946,0.015521,-0.214915,-0.392163,-0.205112,0.09668,-0.608887,-1.239746
651,1.876945,2.231277,9.443385,0.411013,-0.087399,-0.061639,-0.194445,-0.449447,-0.201003,0.092529,-0.611084,-1.244141
652,1.82985,2.43352,9.278795,0.446745,-0.340038,0.063275,-0.17431,-0.524319,-0.199325,0.090332,-0.60498,-1.248535
653,1.884985,2.507164,9.419913,0.473712,-0.395989,-0.096518,-0.183713,-0.593366,-0.198145,0.075684,-0.603271,-1.24585
654,1.986457,2.759478,9.306555,0.386335,-0.671609,-0.065172,-0.180346,-0.657119,-0.204577,0.075439,-0.599121,-1.250244
655,2.148808,3.05989,9.083327,0.212272,-1.0079,0.04407,-0.195512,-0.740024,-0.211105,0.062744,-0.599609,-1.245361
656,2.266483,3.242661,9.188718,0.181217,-1.174077,-0.120723,-0.235338,-0.789823,-0.207706,0.054199,-0.59375,-1.258545
657,2.278924,3.362689,9.288783,0.25678,-1.295522,-0.239076,-0.245702,-0.795473,-0.203057,0.043701,-0.592041,-1.258301
658,2.042941,3.656041,9.241877,0.515977,-1.646401,-0.186075,-0.27078,-0.811329,-0.20559,0.037354,-0.587891,-1.260254
659,2.021501,3.679512,9.354267,0.635818,-1.684009,-0.281219,-0.327502,-0.844614,-0.210448,0.024658,-0.586426,-1.264404
660,2.063763,3.730756,9.557032,0.722211,-1.731794,-0.482617,-0.383615,-0.837141,-0.225477,0.016113,-0.58667,-1.26416
661,2.147766,3.872017,9.880744,0.799033,-1.849145,-0.825743,-0.45296,-0.796725,-0.257244,0.007568,-0.576416,-1.270508
662,2.204757,4.049728,10.366823,0.945208,-1.990927,-1.317206,-0.562719,-0.716114,-0.305879,0.001221,-0.57666,-1.265869
663,2.174691,4.084889,10.8522,1.177055,-2.023488,-1.75041,-0.698382,-0.635553,-0.348817,-0.007324,-0.572754,-1.27002
664,2.049257,3.944732,11.237342,1.473609,-1.93466,-2.024665,-0.840755,-0.586095,-0.387442,-0.018066,-0.558594,-1.27417
665,2.019082,3.789252,11.454176,1.62435,-1.862064,-2.167559,-0.968179,-0.618173,-0.414245,-0.022461,-0.554688,-1.2854
666,1.956302,3.627531,11.608847,1.788614,-1.816282,-2.239359,-1.102079,-0.671175,-0.433502,-0.026855,-0.546387,-1.285156
667,1.614915,3.31654,11.606005,2.18047,-1.707567,-2.046253,-1.235546,-0.753904,-0.460773,-0.029053,-0.53418,-1.287354
668,1.463849,3.153844,11.519234,2.359004,-1.740912,-1.857103,-1.371308,-0.923665,-0.493524,-0.039795,-0.523926,-1.282471
669,1.680147,3.030548,11.518838,2.241079,-1.76003,-1.873508,-1.514547,-1.136676,-0.522515,-0.050537,-0.509766,-1.293457
670,1.792925,2.862037,11.420204,2.207677,-1.775857,-1.7543,-1.642198,-1.321504,-0.550589,-0.069824,-0.498047,-1.290527
671,1.778478,2.555335,11.193644,2.279521,-1.698326,-1.452521,-1.771225,-1.508088,-0.580415,-0.086914,-0.479736,-1.292236
672,1.955381,2.206136,10.949762,2.194005,-1.551602,-1.203709,-1.901029,-1.705321,-0.61166,-0.095703,-0.459229,-1.291992
673,2.312598,1.893342,10.927071,2.050377,-1.409936,-1.238785,-2.014753,-1.900716,-0.628611,-0.121338,-0.441406,-1.29126
674,2.749942,1.557644,10.77838,1.812093,-1.237805,-1.202692,-2.125147,-2.053825,-0.641564,-0.138672,-0.421143,-1.288574
675,3.212335,1.152992,10.799302,1.660803,-1.005888,-1.345043,-2.226418,-2.149688,-0.645928,-0.162109,-0.396973,-1.283447
676,3.555483,0.790116,10.723415,1.58222,-0.844911,-1.369041,-2.326935,-2.208006,-0.657882,-0.183838,-0.37085,-1.293945
677,4.010109,0.576902,10.530103,1.332102,-0.800558,-1.361932,-2.433408,-2.240669,-0.667084,-0.20752,-0.344482,-1.281982
678,4.513414,0.349352,10.313913,1.041042,-0.728106,-1.378659,-2.527649,-2.261768,-0.666264,-0.230957,-0.324463,-1.272217
679,4.997447,0.140087,10.000051,0.72084,-0.659618,-1.324227,-2.618732,-2.251525,-0.655345,-0.246338,-0.293701,-1.271973
680,5.375396,-0.140949,9.546328,0.442296,-0.5114,-1.122606,-2.692871,-2.256534,-0.637572,-0.27002,-0.263184,-1.255371
681,5.685736,-0.522022,8.941422,0.176867,-0.234868,-0.791731,-2.751756,-2.269125,-0.599867,-0.291504,-0.234863,-1.243652
682,6.056085,-0.873205,8.291881,-0.162206,0.060292,-0.490474,-2.795408,-2.333294,-0.539564,-0.315186,-0.204346,-1.238281
683,6.378066,-1.305406,7.553803,-0.469674,0.466642,-0.137011,-2.821309,-2.433443,-0.453258,-0.343262,-0.174072,-1.224121
684,6.752162,-1.742114,6.837052,-0.788417,0.90494,0.121343,-2.809557,-2.575112,-0.346316,-0.366943,-0.141602,-1.212158
685,7.113349,-2.102046,6.195314,-1.067276,1.261174,0.291096,-2.780853,-2.73261,-0.215203,-0.396973,-0.111328,-1.199951
686,7.599758,-2.322177,5.59272,-1.45659,1.513833,0.325675,-2.734928,-2.872703,-0.084508,-0.422852,-0.081055,-1.181396
687,8.26143,-2.424916,5.119575,-1.93432,1.650429,0.124313,-2.666292,-2.93888,0.047881,-0.44873,-0.044434,-1.1604
688,9.050148,-2.524389,4.725772,-2.448307,1.770937,-0.260464,-2.590819,-2.870744,0.173927,-0.476563,-0.020264,-1.148438
689,9.663153,-2.762733,4.163705,-2.875417,2.054869,-0.475353,-2.483707,-2.696416,0.28733,-0.502441,0.008057,-1.127441
690,9.977877,-3.137605,3.355285,-3.196594,2.540196,-0.384357,-2.352305,-2.447804,0.399308,-0.526123,0.040527,-1.111084
691,10.052044,-3.776682,2.410509,-3.337426,3.31364,-0.136698,-2.165952,-2.196687,0.494047,-0.543213,0.056641,-1.090332
692,10.290956,-4.3879,1.242113,-3.756226,4.240824,0.086464,-1.945426,-1.868474,0.59536,-0.558594,0.083252,-1.074219
693,10.772928,-4.980738,0.010805,-4.404736,5.254665,0.12532,-1.680462,-1.497553,0.678187,-0.569336,0.101563,-1.055908
694,11.043404,-5.477333,-0.98181,-4.854804,6.069793,0.194652,-1.374238,-1.09418,0.740143,-0.575928,0.120117,-1.044434
695,11.146791,-5.851167,-1.908643,-5.256912,6.767206,0.394757,-1.042076,-0.735307,0.806137,-0.576172,0.132568,-1.040039
696,10.878403,-5.977519,-2.76132,-5.539225,7.223514,0.933975,-0.703064,-0.490473,0.870001,-0.582764,0.148926,-1.028564
697,10.581469,-6.038135,-3.310701,-5.685887,7.466355,1.368161,-0.343983,-0.431348,0.972167,-0.580811,0.155273,-1.02417
698,10.444284,-5.830184,-3.543966,-5.902643,7.315345,1.610466,-0.004874,-0.523705,1.096736,-0.587158,0.161377,-1.017334
699,10.556802,-5.578655,-3.492664,-6.146816,6.954541,1.529302,0.31186,-0.716892,1.240028,-0.591553,0.171631,-1.014893
700,10.79677,-5.303729,-3.264322,-6.387444,6.442285,1.2658,0.606562,-0.951975,1.413336,-0.602295,0.17749,-1.005615
701,11.025455,-5.106359,-3.151051,-6.66227,6.022498,1.043241,0.886,-1.16713,1.586971,-0.610596,0.173096,-0.998535
702,10.825188,-4.920098,-2.932018,-6.595795,5.518159,1.093284,1.141181,-1.362183,1.7599,-0.621338,0.177002,-0.991699
703,10.334951,-4.706266,-2.827532,-6.428573,5.050903,1.439512,1.374045,-1.52711,1.913849,-0.633789,0.17041,-0.982178
704,9.799583,-4.591594,-2.782095,-6.22724,4.69977,1.813879,1.600234,-1.705883,2.030854,-0.646729,0.17627,-0.977295
705,9.478666,-4.409624,-2.529624,-6.03944,4.165762,1.948027,1.789592,-1.905282,2.125016,-0.665527,0.169434,-0.969971
706,9.253609,-4.258066,-2.35381,-5.932074,3.68716,2.033985,1.96874,-2.132103,2.193191,-0.686768,0.175049,-0.951416
707,9.207135,-4.028677,-2.228874,-5.972419,3.138814,2.038433,2.143087,-2.352358,2.240738,-0.709961,0.168213,-0.946045
708,9.117733,-3.789022,-2.249355,-6.065987,2.646559,2.148499,2.318595,-2.558353,2.270765,-0.730957,0.16748,-0.934326
709,8.69421,-3.562246,-2.078135,-5.783218,2.137598,2.425284,2.505762,-2.822329,2.277997,-0.754395,0.166992,-0.924561
710,8.414156,-3.132111,-1.614099,-5.362804,1.312391,2.551622,2.702847,-3.092241,2.266198,-0.785889,0.155762,-0.896484
711,8.581036,-2.72137,-1.229403,-5.18453,0.444884,2.365163,2.918884,-3.298823,2.216874,-0.813232,0.152832,-0.877686
712,9.158705,-2.366778,-0.690559,-5.00934,-0.539542,1.777318,3.124861,-3.295304,2.114015,-0.838623,0.147949,-0.856689
713,9.654439,-2.090228,-0.249207,-4.783865,-1.375116,1.277179,3.328206,-3.138668,2.002112,-0.859619,0.141113,-0.840332
714,9.440568,-1.715703,0.047391,-4.295406,-1.967459,1.461512,3.504543,-2.950695,1.890035,-0.882813,0.13208,-0.823975
715,8.466921,-1.406784,-0.082114,-3.819101,-2.048633,2.404103,3.675144,-2.832739,1.779279,-0.903564,0.113037,-0.798584
716,8.049222,-1.058143,0.292116,-3.141663,-2.438033,2.72914,3.860077,-2.885862,1.645992,-0.928711,0.104004,-0.779785
717,8.461706,-0.552646,1.385739,-2.100251,-3.351967,2.185446,4.064509,-2.899406,1.475627,-0.949707,0.09082,-0.770264
718,9.653807,0.352,3.423996,-0.353282,-4.931167,0.8352,4.267975,-2.698634,1.274813,-0.972656,0.063232,-0.74707
719,10.803207,1.33586,5.573706,1.639682,-6.35897,-0.503581,4.404989,-2.085299,1.069538,-0.985107,0.054688,-0.737549
720,6.375549,3.131243,5.745162,3.830954,-5.700463,3.789517,4.388992,-1.662278,1.097704,-1.012451,0.039307,-0.70752
721,12.534184,47.594479,94.059578,95.100166,-41.93817,-11.581449,0.929363,-10.04079,1.635018,-1.06543,0.056641,-0.640869
722,23.931348,28.04528,52.572293,50.067779,-32.152873,-14.309864,-1.008047,4.445062,0.278622,-1.025391,0.070068,-0.687012
723,7.544569,0.612082,-1.143213,-2.991277,-4.280653,4.2156,-2.762804,2.257204,0.492639,-1.006836,0.089355,-0.698975
724,3.200191,-15.009884,0.561346,-3.076884,11.443761,0.044231,-1.597189,2.892295,0.762202,-0.98999,0.100098,-0.719482
725,0.487191,-11.00596,1.998703,-0.128138,9.254376,3.511705,-0.853878,0.995574,0.41123,-0.981689,0.106689,-0.719971
726,7.672974,-4.101341,5.197181,1.761038,-0.429594,-0.158278,-0.552239,0.686073,0.038474,-0.975342,0.11499,-0.724609
727,7.463936,0.034441,6.65288,3.782721,-3.982689,1.458018,-0.474033,1.098998,-0.111519,-0.966797,0.102783,-0.745117
728,2.365329,-1.172909,5.103337,3.780031,-0.367518,5.500993,-0.492159,0.75318,-0.368856,-0.960449,0.105225,-0.736328
729,3.607561,-1.910146,7.455727,5.43811,-0.471296,3.296876,-0.534724,-0.051313,-0.506958,-0.966797,0.10498,-0.738281
730,8.634884,-1.430304,9.375018,5.636919,-3.474811,-1.171316,-0.794977,-0.416889,-0.462615,-0.966797,0.107178,-0.729248
731,12.782303,-2.402497,9.768779,4.527979,-4.716931,-5.081471,-1.144597,0.180746,-0.408986,-0.958252,0.103271,-0.731934
732,12.671434,-4.082715,8.787602,3.393337,-3.223228,-5.436886,-1.523681,1.305688,-0.376663,-0.947998,0.111816,-0.752441
733,9.058129,-4.939936,6.898154,2.682907,-0.696242,-2.284905,-1.841165,2.108837,-0.453332,-0.935303,0.118164,-0.766113
734,6.884902,-4.879791,5.444657,2.040949,0.330295,-0.01495,-2.12231,2.295438,-0.572451,-0.912109,0.125244,-0.775879
735,7.335103,-4.878662,5.004058,1.387473,0.080161,-0.222902,-2.376238,2.201221,-0.643575,-0.897705,0.137939,-0.789795
736,8.29008,-5.059566,4.707557,0.649305,-0.236971,-0.957968,-2.577857,2.166793,-0.66658,-0.878906,0.153076,-0.797119
737,8.418567,-5.074658,4.106948,-0.011017,-0.23249,-0.837977,-2.703389,2.096342,-0.653671,-0.864258,0.170166,-0.806641
738,8.164172,-4.902361,3.306384,-0.657911,-0.137537,-0.245494,-2.780017,1.883832,-0.608483,-0.843262,0.185303,-0.818604
739,8.153101,-4.788545,2.495422,-1.38984,-0.052756,0.133026,-2.802101,1.584947,-0.545575,-0.837158,0.197754,-0.825439
740,8.479191,-4.77905,1.510011,-2.399469,0.076771,0.260057,-2.778881,1.317165,-0.474082,-0.822754,0.214844,-0.821533
741,8.839458,-4.913463,0.535985,-3.378568,0.363606,0.272333,-2.70649,1.181282,-0.40503,-0.812256,0.229736,-0.817383
742,8.888878,-5.172654,-0.425932,-4.157785,0.92749,0.442403,-2.578802,1.182216,-0.370248,-0.795654,0.249023,-0.824707
743,8.554118,-5.539714,-1.546492,-4.836659,1.84287,0.898486,-2.415005,1.28781,-0.362783,-0.787598,0.263672,-0.822754
744,8.140151,-6.078589,-2.522311,-5.290849,2.919447,1.265398,-2.209605,1.386143,-0.384552,-0.772949,0.276611,-0.827637
745,7.762099,-6.65567,-3.260117,-5.521887,3.943348,1.498001,-1.976581,1.448582,-0.39991,-0.758301,0.289551,-0.830566
746,7.526225,-7.200105,-3.767897,-5.618419,4.800199,1.562068,-1.71693,1.435255,-0.412539,-0.747803,0.293945,-0.828613
747,7.414785,-7.512501,-4.00434,-5.599414,5.300056,1.5661,-1.440466,1.320684,-0.39593,-0.737305,0.304688,-0.835693
748,7.543968,-7.602193,-4.171931,-5.714126,5.494588,1.489996,-1.156058,1.097339,-0.333753,-0.727051,0.311279,-0.838135
749,7.527683,-7.602956,-4.460796,-5.873513,5.714628,1.614272,-0.880599,0.797545,-0.235095,-0.7229,0.31543,-0.840576
750,7.485888,-7.710953,-4.796416,-6.036999,6.030305,1.707579,-0.617039,0.430992,-0.114148,-0.718506,0.317627,-0.843018
751,7.489114,-7.971796,-5.331476,-6.352145,6.526958,1.74361,-0.332716,0.040161,0.009551,-0.720703,0.31958,-0.836182
752,7.649066,-8.084784,-5.613724,-6.618726,6.694637,1.642006,-0.01548,-0.300792,0.115573,-0.727051,0.321533,-0.83374
753,8.17688,-8.070545,-5.737438,-7.030722,6.528553,1.276887,0.321592,-0.523369,0.204376,-0.731201,0.319336,-0.831299
754,8.666042,-7.920959,-5.675557,-7.334469,6.150785,0.956805,0.658866,-0.596406,0.279559,-0.733398,0.311035,-0.831299
755,8.878919,-7.742696,-5.655733,-7.544794,5.853038,0.891426,0.99329,-0.576529,0.346954,-0.739746,0.314941,-0.831055
756,8.660039,-7.476442,-5.636096,-7.557344,5.627494,1.217609,1.317508,-0.548535,0.415752,-0.743652,0.300293,-0.833252
757,8.422361,-7.223556,-5.553086,-7.527094,5.379407,1.544962,1.632364,-0.566895,0.491096,-0.745605,0.289795,-0.835449
758,8.270101,-7.043891,-5.309778,-7.41438,5.072646,1.71966,1.914579,-0.63015,0.569389,-0.751953,0.283447,-0.837402
759,7.924279,-6.931192,-5.009197,-7.144464,4.857574,1.984224,2.204972,-0.793441,0.646233,-0.764404,0.272705,-0.841553
760,7.597152,-6.858434,-4.690498,-6.868189,4.652034,2.200971,2.482342,-1.067203,0.722332,-0.774658,0.257813,-0.841064
761,7.585936,-6.619561,-4.18853,-6.632138,4.104035,2.191903,2.766616,-1.40379,0.78794,-0.789307,0.244873,-0.838379
762,7.906731,-6.315909,-3.548183,-6.436118,3.313349,1.901243,3.043056,-1.701204,0.828738,-0.801758,0.234131,-0.837891
763,8.363225,-5.83017,-2.785065,-6.174916,2.279744,1.544619,3.32068,-1.902384,0.854514,-0.820557,0.20874,-0.830566
764,8.488836,-5.410977,-2.080723,-5.733592,1.487394,1.411527,3.603676,-2.036925,0.852379,-0.834961,0.1875,-0.825684
765,8.499269,-4.874154,-1.376089,-5.18875,0.688292,1.416852,3.887068,-2.108688,0.812418,-0.85376,0.16626,-0.820557
766,8.815099,-4.374814,-0.492118,-4.57231,-0.198674,1.08681,4.160014,-2.043451,0.711655,-0.874512,0.14502,-0.810791
767,9.160705,-3.743893,0.604469,-3.72049,-1.164124,0.696583,4.430307,-1.79037,0.577126,-0.890869,0.115479,-0.810303
768,9.386306,-2.951524,1.890161,-2.589166,-2.123682,0.369545,4.667793,-1.371594,0.44172,-0.903076,0.081787,-0.807617
769,9.637449,-1.12967,-2.155826,-6.049009,-3.542631,2.765666,4.811788,-1.246873,0.698871,-0.936523,0.062256,-0.777344
770,21.611187,59.297158,117.535634,111.179036,-63.809484,-26.935862,-0.090118,-10.657118,1.130002,-0.968506,0.06958,-0.740479
771,17.047911,25.853631,23.642475,20.417003,-31.272657,-1.24126,0.006853,11.423383,-0.517342,-0.903076,0.081787,-0.818848
772,-0.357808,-4.965187,-5.521805,-5.675006,4.788522,10.175436,-2.946283,-0.908273,0.183014,-0.909912,0.106445,-0.805176
773,1.73797,-23.351593,0.586409,-3.744503,19.296365,-2.926215,-1.644499,2.423155,0.394344,-0.893066,0.113281,-0.8125
774,2.615118,-19.466738,3.072943,-1.13377,15.20404,-2.946073,-0.521713,-0.813779,0.355334,-0.89502,0.115234,-0.807861
775,7.597279,-6.529356,5.55403,0.967498,1.330286,-1.522764,0.018491,-0.453474,-0.187589,-0.899414,0.115234,-0.803223
776,7.482826,1.317302,8.803787,5.082062,-5.645651,1.007356,-0.04023,-0.041621,-0.346399,-0.907715,0.112793,-0.798584
777,3.726276,0.599153,6.629861,4.550556,-2.963233,4.454436,-0.408882,-0.039082,-0.47775,-0.901367,0.108887,-0.798584
778,5.755828,-1.644294,9.128652,5.709544,-2.249762,0.784683,-0.503984,-0.485901,-0.556211,-0.909912,0.108643,-0.791748
779,9.01026,-1.283171,10.000213,5.304603,-4.224619,-1.885545,-0.771177,-0.572994,-0.577566,-0.91626,0.108398,-0.789307
780,11.63015,-1.726332,8.963919,3.325772,-5.013184,-3.692849,-1.054289,-0.058746,-0.50231,-0.909912,0.108643,-0.784912
781,11.835793,-2.280707,8.347308,2.604169,-4.615102,-3.857839,-1.391023,0.820767,-0.418895,-0.903564,0.117188,-0.787354
782,8.951158,-2.616462,7.078338,2.494389,-2.888533,-1.255475,-1.690588,1.59437,-0.473378,-0.884766,0.12793,-0.803711
783,6.787637,-2.95389,5.816155,2.136924,-1.496875,0.76743,-1.976723,1.748935,-0.579999,-0.874268,0.136719,-0.815186
784,7.35383,-3.395964,5.435396,1.456442,-1.398449,0.269252,-2.224305,1.468008,-0.600717,-0.857666,0.149658,-0.820313
785,8.607148,-3.586824,5.985069,1.333928,-2.004316,-1.002655,-2.433465,1.211609,-0.548438,-0.849365,0.158203,-0.818359
786,9.067151,-3.716386,5.881519,1.000504,-2.183729,-1.36077,-2.593214,1.081661,-0.471557,-0.843262,0.174805,-0.814209
787,8.646377,-3.789741,4.961926,0.380193,-1.814878,-0.689856,-2.709543,0.929934,-0.411283,-0.833008,0.196045,-0.821289
788,8.403076,-4.170238,3.490551,-0.755058,-1.065159,-0.111082,-2.765048,0.724036,-0.333626,-0.828857,0.210693,-0.816895
789,8.96157,-4.791036,2.123767,-2.121243,-0.425206,-0.340789,-2.741962,0.614392,-0.248763,-0.818848,0.237793,-0.817139
790,9.36755,-5.439222,0.936511,-3.22076,0.300665,-0.567535,-2.648005,0.730056,-0.201713,-0.810547,0.250488,-0.810791
791,9.126958,-5.99427,-0.320644,-4.049335,1.301379,-0.249338,-2.492673,0.958674,-0.210198,-0.80249,0.269531,-0.808838
792,8.607689,-6.365216,-1.387962,-4.579489,2.251559,0.299907,-2.302363,1.158497,-0.243336,-0.791992,0.280273,-0.811523
793,8.195623,-6.589662,-2.118353,-4.882754,2.945977,0.72651,-2.088801,1.272794,-0.2596,-0.779541,0.297119,-0.80957
794,7.843785,-6.765951,-2.527584,-4.944903,3.464044,1.024091,-1.867776,1.285232,-0.260495,-0.764893,0.310059,-0.812256
795,7.624704,-6.928754,-2.718995,-4.891871,3.8259,1.154269,-1.652145,1.175181,-0.2291,-0.752441,0.314697,-0.812744
796,7.637059,-7.124823,-2.804939,-4.868807,4.068089,1.05481,-1.424682,1.00882,-0.169033,-0.746094,0.321045,-0.815186
797,7.509906,-7.376094,-3.196551,-5.003266,4.542852,1.132084,-1.195214,0.806894,-0.100625,-0.741943,0.331543,-0.817627
798,7.371196,-7.809784,-3.618832,-5.109618,5.169705,1.118498,-0.955667,0.549832,-0.016016,-0.73999,0.337891,-0.811035
799,7.192869,-8.214548,-4.068275,-5.222392,5.786903,1.15213,-0.689014,0.263558,0.066432,-0.73584,0.342041,-0.813232
800,7.343734,-8.64264,-4.549679,-5.548589,6.301541,0.934124,-0.386226,0.026971,0.125074,-0.731689,0.342285,-0.811279
801,7.71524,-8.880962,-4.810774,-5.893168,6.463094,0.591033,-0.048407,-0.095552,0.178161,-0.73584,0.346191,-0.808838
802,7.916575,-8.824053,-4.791682,-6.02369,6.31035,0.464384,0.302237,-0.101424,0.203688,-0.731689,0.348389,-0.813477
803,7.952531,-8.600772,-4.701433,-6.075981,6.05693,0.554443,0.642808,-0.030496,0.216747,-0.729492,0.344482,-0.809082
804,7.823433,-8.318016,-4.708511,-6.153357,5.871545,0.855801,0.971431,0.016123,0.239522,-0.733643,0.342041,-0.820068
805,7.702906,-8.017838,-4.565669,-6.142071,5.591992,1.1254,1.280565,-0.01355,0.286328,-0.731445,0.333984,-0.820068
806,7.761022,-7.832258,-4.429704,-6.22681,5.328836,1.208712,1.572074,-0.109011,0.350361,-0.735596,0.321289,-0.82666
807,7.676066,-7.676569,-4.573121,-6.462689,5.261574,1.487299,1.850464,-0.272044,0.426929,-0.739502,0.304688,-0.831055
808,7.47457,-7.521273,-4.842146,-6.746411,5.267361,1.899234,2.135477,-0.572527,0.522643,-0.745605,0.293945,-0.835449
809,7.379151,-7.345076,-4.716016,-6.779701,5.004531,2.09068,2.422336,-0.936643,0.60221,-0.751953,0.283447,-0.8396
810,7.546543,-7.117483,-4.449541,-6.84593,4.509612,2.053836,2.717552,-1.245988,0.666802,-0.758057,0.266602,-0.834961
811,7.916041,-6.734223,-4.083764,-6.940793,3.747797,1.909158,3.012331,-1.43565,0.692283,-0.778809,0.247314,-0.832031
812,8.191401,-6.379144,-3.606582,-6.858514,3.005579,1.767611,3.315966,-1.500351,0.677064,-0.79541,0.226074,-0.835938
813,8.472567,-5.824828,-3.009841,-6.658302,2.073624,1.680293,3.639711,-1.401696,0.617442,-0.80127,0.203125,-0.837891
814,8.730602,-5.215072,-2.492546,-6.478028,1.15931,1.668893,4.003234,-1.217153,0.535662,-0.813721,0.175781,-0.8396
815,8.869262,-4.409994,-1.417041,-5.713471,0.040986,1.598523,4.33909,-0.922306,0.448959,-0.827881,0.144043,-0.84375
816,8.773209,-3.559008,-0.138907,-4.611951,-0.961434,1.599327,4.652443,-0.556341,0.386912,-0.82959,0.106689,-0.850342
817,7.809199,-1.834498,-0.563876,-4.436611,-1.977185,3.403827,4.800396,-0.30832,0.432318,-0.837402,0.07959,-0.852295
818,0.869843,46.324099,88.831092,85.560491,-48.712255,-8.501097,1.092701,-10.682026,1.525784,-0.916016,0.093994,-0.773438
819,13.96421,28.856141,50.387289,43.535569,-35.93593,-9.618725,0.261336,9.275076,-1.230869,-0.837646,0.08374,-0.852295
820,1.68441,6.765649,-21.617349,-18.856551,-4.397322,21.685584,-2.557475,-2.350052,-0.12195,-0.865479,0.109863,-0.820068
821,13.501116,-24.736904,4.58503,-5.005433,14.554442,-14.235759,-1.319623,1.293867,0.130807,-0.85083,0.114502,-0.836182
822,3.962632,-20.750511,-0.268754,-4.430961,16.196739,-3.008801,-0.28298,0.75517,-0.043436,-0.844482,0.114502,-0.847656
823,4.282612,-9.291298,5.668999,1.909935,5.301674,-0.436682,0.614735,1.271931,-0.551839,-0.843994,0.09375,-0.847656
824,6.300546,2.218862,7.326421,3.652649,-5.871812,2.708057,0.333576,0.663077,-0.738894,-0.833496,0.090088,-0.861328
825,8.071816,1.103724,5.852586,1.286711,-5.4609,1.497297,0.285629,1.363563,-0.992801,-0.820557,0.082031,-0.870605
826,7.417383,-1.344977,7.839707,2.895453,-3.231951,-0.160059,0.20966,1.506989,-1.031317,-0.816162,0.071777,-0.879883
827,7.397075,-2.463395,8.70386,3.372994,-2.302204,-1.135495,0.263868,1.301887,-0.944325,-0.796875,0.055664,-0.889404
828,8.669391,-2.369536,8.678936,2.578131,-2.874833,-2.069408,0.072704,0.948501,-0.736406,-0.790527,0.051758,-0.894043
829,9.202656,-3.322653,7.275968,0.896972,-1.991327,-2.183027,-0.13276,1.193785,-0.671653,-0.780029,0.047852,-0.90332
830,8.124367,-4.598048,5.689438,-0.105078,-0.116389,-1.11851,-0.299712,1.537912,-0.720035,-0.765137,0.044189,-0.919434
831,6.8256,-5.367543,4.458309,-0.589752,1.34267,0.162585,-0.359348,1.556888,-0.805423,-0.748047,0.038574,-0.926758
832,7.205757,-5.391599,4.196924,-1.100239,1.306364,0.03063,-0.372103,1.355706,-0.862257,-0.737549,0.036621,-0.933838
833,8.236216,-5.444036,4.532374,-1.500408,0.95327,-0.904321,-0.389283,1.362869,-0.894276,-0.731201,0.032715,-0.945313
834,8.386978,-5.591263,4.967329,-1.342546,1.009162,-1.298378,-0.393301,1.582588,-0.920081,-0.714111,0.031006,-0.959229
835,7.615813,-5.542457,5.163219,-0.834304,1.264156,-0.821341,-0.39047,1.845749,-0.954426,-0.690918,0.031738,-0.971191
836,6.516891,-5.441965,5.550377,0.031021,1.523442,-0.215687,-0.407895,2.001561,-1.014538,-0.673828,0.026123,-0.98291
837,5.692724,-5.353836,5.90126,0.710455,1.679876,0.191481,-0.413415,2.058422,-1.091793,-0.656982,0.022461,-0.990234
838,5.445387,-5.226891,6.216854,1.003776,1.604371,0.218982,-0.389066,2.025965,-1.168296,-0.631348,0.010742,-1.006592
839,5.6901,-5.015718,6.396905,0.869508,1.333526,0.018841,-0.360024,1.995601,-1.240969,-0.612305,0.01123,-1.011719
840,5.915163,-4.766567,6.402653,0.606709,1.091197,-0.043423,-0.314121,2.022259,-1.312456,-0.595459,0.007568,-1.016846
841,5.892532,-4.427013,6.339974,0.453737,0.865161,0.140071,-0.265614,2.065731,-1.385251,-0.574219,0.001953,-1.033203
842,5.639458,-4.091845,6.221856,0.421073,0.722897,0.50911,-0.199819,2.048536,-1.434773,-0.552979,-0.003662,-1.042725
843,5.39046,-3.833539,6.176236,0.445783,0.630462,0.795971,-0.133758,1.952772,-1.461142,-0.533936,-0.009277,-1.052246
844,5.248818,-3.671646,6.151643,0.423114,0.596135,0.961809,-0.077844,1.758108,-1.457295,-0.518799,-0.019287,-1.05957
845,5.145504,-3.561526,6.092761,0.371905,0.610751,1.108085,-0.028722,1.450629,-1.41885,-0.501953,-0.029053,-1.064453
846,5.337181,-3.47228,6.093777,0.164055,0.573633,1.01953,0.015836,1.093486,-1.366372,-0.489014,-0.032959,-1.067139
847,5.642336,-3.403057,5.968073,-0.187277,0.579847,0.943489,0.049776,0.756148,-1.330289,-0.484863,-0.041016,-1.073975
848,6.071854,-3.278073,5.794856,-0.647192,0.536263,0.841265,0.084694,0.48669,-1.281931,-0.484619,-0.045166,-1.071777
849,6.416143,-3.147544,5.707795,-0.97387,0.48221,0.731322,0.129026,0.336268,-1.240604,-0.476074,-0.05542,-1.072021
850,6.725907,-2.897507,5.851919,-1.13676,0.259466,0.511184,0.18751,0.337411,-1.223003,-0.478271,-0.057373,-1.078613
851,6.923627,-2.657087,6.024014,-1.205504,0.060708,0.334946,0.244758,0.45343,-1.227191,-0.465332,-0.06958,-1.076904
852,7.151186,-2.42551,6.300533,-1.24966,-0.151854,0.059054,0.286628,0.651639,-1.240154,-0.458984,-0.075684,-1.081543
853,7.202365,-2.266448,6.480182,-1.23448,-0.240888,-0.057478,0.312921,0.870384,-1.249459,-0.448242,-0.083496,-1.088623
854,7.081607,-2.176151,6.664748,-1.09606,-0.248098,-0.088779,0.325238,1.043572,-1.259741,-0.4375,-0.0979,-1.093506
855,6.917289,-2.217235,6.702004,-1.009924,-0.085778,-0.018528,0.317487,1.154685,-1.243308,-0.422363,-0.105713,-1.100586
856,6.722157,-2.243378,6.73813,-0.905934,0.06007,0.076342,0.355424,1.165803,-1.222894,-0.411865,-0.109375,-1.094238
857,6.513309,-2.081535,6.728907,-0.842468,0.033425,0.256449,0.382746,1.094401,-1.189052,-0.398926,-0.125732,-1.099121
858,6.469935,-1.808652,6.801004,-0.874237,-0.131116,0.29418,0.387492,1.007113,-1.153642,-0.388184,-0.131592,-1.099365
859,6.650733,-1.774575,6.980918,-0.980918,-0.095224,0.058621,0.392693,0.980362,-1.128086,-0.366943,-0.137207,-1.106934
860,6.822027,-1.676076,7.168861,-1.09159,-0.11787,-0.164022,0.404264,1.024225,-1.113052,-0.364746,-0.143311,-1.111328
861,6.921849,-1.553271,7.441861,-1.112507,-0.181637,-0.406579,0.397295,1.115628,-1.100964,-0.351807,-0.157471,-1.111816
862,7.061328,-1.484873,7.574123,-1.251273,-0.148818,-0.572134,0.373221,1.26588,-1.090122,-0.334961,-0.161133,-1.119141
863,7.044016,-1.570644,7.605947,-1.305492,0.054462,-0.590473,0.357191,1.421745,-1.06815,-0.313721,-0.170898,-1.121826
864,6.84793,-1.424811,7.729523,-1.224804,-0.002461,-0.539456,0.336339,1.552673,-1.036865,-0.294434,-0.180664,-1.124756
865,6.392241,-1.317108,7.911289,-0.902834,-0.067062,-0.403072,0.29885,1.609578,-0.984903,-0.273438,-0.182129,-1.13208
866,5.899792,-1.15833,8.094489,-0.563478,-0.201655,-0.252573,0.245355,1.587874,-0.922985,-0.256348,-0.187744,-1.128174
867,5.426024,-1.071376,8.225165,-0.24526,-0.270999,-0.09223,0.198879,1.480926,-0.857842,-0.239258,-0.193604,-1.139893
868,5.070927,-1.099208,8.327233,-0.001914,-0.226925,0.003896,0.15201,1.317608,-0.802993,-0.226563,-0.193115,-1.135986
869,4.844839,-1.106587,8.543427,0.197627,-0.22707,-0.066353,0.105885,1.137392,-0.752663,-0.211914,-0.196777,-1.136475
870,4.707941,-1.166176,8.550341,0.250517,-0.128305,-0.013452,0.074842,0.954799,-0.708763,-0.201172,-0.196533,-1.143555
871,4.589674,-1.149845,8.407632,0.216748,-0.076417,0.167885,0.034782,0.790859,-0.664105,-0.197021,-0.200439,-1.141357
872,4.423291,-1.173083,8.15756,0.20135,0.019647,0.461421,0.017387,0.640416,-0.624775,-0.184326,-0.196045,-1.137207
873,4.339907,-1.144546,7.891145,0.109935,0.075979,0.735414,0.009936,0.501783,-0.608683,-0.179932,-0.204102,-1.137451
874,4.44396,-1.211133,7.619664,-0.106626,0.252505,0.913269,0.000104,0.394338,-0.589716,-0.173584,-0.201904,-1.14209
875,4.654181,-1.345866,7.61564,-0.269112,0.452738,0.80196,-0.002451,0.34967,-0.587806,-0.163086,-0.205811,-1.144531
876,4.848244,-1.408647,7.81561,-0.346165,0.539059,0.530287,0.023286,0.389166,-0.605035,-0.165283,-0.205811,-1.144531
877,4.885198,-1.33909,8.048752,-0.316462,0.46784,0.319453,0.044079,0.477085,-0.633103,-0.154541,-0.203369,-1.142578
878,4.718354,-1.326483,8.263197,-0.113768,0.418322,0.215051,0.041274,0.573764,-0.657539,-0.152588,-0.205322,-1.142822
879,4.31043,-1.356753,8.310557,0.229506,0.395603,0.364065,0.035332,0.619511,-0.681158,-0.135498,-0.208984,-1.147705
880,4.010625,-1.413467,8.41213,0.511829,0.404785,0.40945,0.041666,0.571207,-0.699887,-0.135498,-0.207031,-1.138916
881,3.945126,-1.369037,8.423162,0.531139,0.387136,0.434215,0.056952,0.495852,-0.709323,-0.125,-0.20874,-1.148193
882,4.056774,-1.255467,8.357277,0.352341,0.361229,0.451978,0.070335,0.420776,-0.720234,-0.118652,-0.204346,-1.150635
883,4.201361,-1.162663,8.24242,0.137883,0.375005,0.497061,0.079782,0.358189,-0.727227,-0.118652,-0.212646,-1.137207
884,4.436829,-1.082698,8.085918,-0.162613,0.434694,0.537766,0.097408,0.327806,-0.731181,-0.105957,-0.212402,-1.144287
885,4.655515,-1.096589,7.932101,-0.415487,0.58335,0.577894,0.132032,0.350064,-0.724443,-0.110107,-0.216553,-1.14624
886,4.831572,-0.972747,7.705261,-0.709211,0.613112,0.714215,0.179675,0.432826,-0.718309,-0.097412,-0.220459,-1.146729
887,5.251696,-0.764091,7.41091,-1.27278,0.653402,0.810554,0.243075,0.535332,-0.715424,-0.091064,-0.220215,-1.142334
888,5.560885,-0.464363,7.111635,-1.783456,0.59156,0.970565,0.320169,0.688662,-0.714891,-0.08667,-0.228271,-1.142578
889,5.583616,-0.122421,6.859758,-2.05786,0.410389,1.219435,0.390285,0.868298,-0.704478,-0.067627,-0.233887,-1.143066
890,5.461172,0.171111,6.759195,-2.145226,0.208806,1.392844,0.44435,1.020881,-0.683675,-0.056885,-0.237793,-1.145752
891,5.405703,0.349431,6.761394,-2.22054,0.121221,1.43931,0.513951,1.14683,-0.648291,-0.044189,-0.243652,-1.148438
892,5.406984,0.616477,6.769424,-2.382791,-0.027569,1.460397,0.579106,1.248058,-0.586679,-0.03125,-0.251465,-1.146484
893,5.456951,0.775383,6.757366,-2.561908,-0.052835,1.477589,0.642189,1.310705,-0.508167,-0.012207,-0.26123,-1.14502
894,5.46411,0.963304,6.768896,-2.709018,-0.122392,1.4912,0.701949,1.323469,-0.405926,0.004883,-0.26709,-1.145508
895,5.437691,1.172536,6.822063,-2.820506,-0.231246,1.477597,0.748587,1.304896,-0.287703,0.019775,-0.281006,-1.141357
896,5.425022,1.193682,6.900453,-2.865371,-0.167886,1.432224,0.801863,1.268595,-0.14545,0.032715,-0.284912,-1.141846
897,5.383651,1.167316,6.975687,-2.86683,-0.073836,1.399531,0.864596,1.227999,0.012836,0.043457,-0.296875,-1.144287
898,5.318784,1.2204,7.178655,-2.832814,-0.080467,1.252339,0.922166,1.182093,0.169746,0.056152,-0.306885,-1.142578
899,5.462509,1.37598,7.424388,-3.004007,-0.118577,0.991418,0.953939,1.128585,0.334155,0.073242,-0.316895,-1.136475
900,5.77409,1.539546,7.708019,-3.31467,-0.116056,0.640853,0.963854,1.079255,0.507703,0.077637,-0.329102,-1.140869
901,5.989414,1.65708,8.034984,-3.513751,-0.113001,0.282734,0.967932,1.062484,0.689107,0.092773,-0.345215,-1.132568
902,6.023672,1.74012,8.271701,-3.569343,-0.13922,0.067257,0.961631,1.050765,0.867616,0.099365,-0.357422,-1.130371
903,5.90757,1.696716,8.492223,-3.455461,-0.101437,-0.084028,0.931684,1.029562,1.032595,0.105713,-0.367676,-1.132813
904,5.611555,1.555228,8.553088,-3.194102,-0.027314,-0.029062,0.912569,1.003677,1.210271,0.12085,-0.385742,-1.131104
905,5.261579,1.312514,8.678682,-2.834826,0.121613,-0.019654,0.886098,0.946022,1.368593,0.118896,-0.398438,-1.126465
906,5.173074,1.059964,8.980254,-2.667729,0.351969,-0.25151,0.855898,0.895724,1.526482,0.121094,-0.408691,-1.126465
907,5.186163,0.907406,9.45732,-2.583462,0.511104,-0.686102,0.8156,0.860627,1.668217,0.125732,-0.427246,-1.126709
908,5.133589,0.784106,9.999524,-2.437719,0.623196,-1.170374,0.77026,0.840143,1.79762,0.13208,-0.437256,-1.122314
909,4.945828,0.520824,10.490121,-2.158278,0.838851,-1.563279,0.706712,0.841353,1.918336,0.130371,-0.454102,-1.120117
910,4.696415,0.239234,11.059057,-1.812982,1.065518,-2.019188,0.653757,0.835592,2.025122,0.134766,-0.462158,-1.122314
911,4.386326,0.069929,11.473264,-1.484349,1.174567,-2.323899,0.60488,0.838756,2.109515,0.126221,-0.46875,-1.12207
912,4.017298,-0.121755,11.811299,-1.122923,1.300156,-2.544819,0.539104,0.826661,2.184271,0.13501,-0.476563,-1.115723
913,3.627293,-0.290605,12.024336,-0.780754,1.403509,-2.647085,0.482057,0.796696,2.252159,0.133057,-0.493408,-1.115479
914,3.150337,-0.402758,12.071506,-0.400052,1.440288,-2.579757,0.432849,0.766795,2.300917,0.128906,-0.495605,-1.12207
915,2.722508,-0.394944,12.14627,-0.071066,1.376823,-2.564644,0.365072,0.731674,2.339619,0.122803,-0.508301,-1.121826
916,2.351338,-0.416561,12.354468,0.238314,1.363006,-2.694103,0.286018,0.694147,2.382873,0.116455,-0.512451,-1.119385
917,1.92776,-0.434812,12.583744,0.604963,1.351952,-2.838851,0.222994,0.662114,2.409755,0.114502,-0.516602,-1.112793
918,1.554143,-0.374108,12.961158,0.95107,1.283166,-3.148606,0.145904,0.649025,2.432556,0.110352,-0.525146,-1.116943
919,1.267069,-0.362849,13.398694,1.222357,1.274495,-3.534328,0.052502,0.655685,2.446079,0.106201,-0.531494,-1.123535
920,1.004855,-0.336401,13.784948,1.454313,1.246812,-3.879543,-0.027352,0.695099,2.433089,0.106201,-0.527344,-1.119141
921,0.584688,-0.205467,14.034552,1.813178,1.11178,-4.073561,-0.118497,0.770411,2.402231,0.101807,-0.527588,-1.125732
922,0.063207,-0.096553,14.029717,2.221386,0.992426,-4.004891,-0.216431,0.862198,2.352483,0.099609,-0.523438,-1.121094
923,-0.495131,0.03596,13.846519,2.634695,0.851906,-3.763163,-0.29836,0.940138,2.291666,0.097656,-0.521484,-1.123291
924,-0.936341,0.141831,13.554686,2.91481,0.729873,-3.438575,-0.383375,1.003528,2.209623,0.097412,-0.515137,-1.123291
925,-1.379155,0.167029,13.244396,3.184404,0.694786,-3.099289,-0.465693,1.066922,2.108968,0.101563,-0.512939,-1.123535
926,-1.817366,0.161894,12.945895,3.447697,0.696261,-2.779059,-0.53784,1.105785,1.991523,0.105713,-0.504639,-1.125977
927,-2.308963,0.168713,12.685279,3.772065,0.705202,-2.497817,-0.597965,1.122771,1.859183,0.105713,-0.496338,-1.128174
928,-2.837004,0.207451,12.464985,4.147298,0.699359,-2.261109,-0.660439,1.126675,1.716499,0.114014,-0.489746,-1.121582
929,-3.209781,0.23915,12.173554,4.37027,0.67567,-1.977051,-0.711895,1.089375,1.558349,0.118164,-0.483398,-1.124023
930,-3.42081,0.180826,11.979224,4.436707,0.708261,-1.808368,-0.761779,1.044234,1.395385,0.12207,-0.470947,-1.128662
931,-3.509928,0.137896,11.700288,4.390002,0.695422,-1.566162,-0.795659,1.002401,1.222261,0.128418,-0.460205,-1.126709
932,-3.560462,0.08652,11.450054,4.314811,0.677073,-1.354705,-0.824826,0.991851,1.029927,0.140869,-0.45166,-1.122559
933,-3.683074,0.019522,11.236746,4.312017,0.687149,-1.176519,-0.843687,1.016069,0.823782,0.140625,-0.435059,-1.127197
934,-3.666725,-0.046475,10.917874,4.171037,0.657792,-0.902495,-0.847049,1.047113,0.605163,0.153076,-0.422119,-1.123047
935,-3.601678,0.00092,10.729987,4.022337,0.497474,-0.75501,-0.850072,1.104794,0.392189,0.163574,-0.415771,-1.125732
936,-3.580273,0.037208,10.383508,3.904645,0.361573,-0.446847,-0.845856,1.178556,0.165875,0.176025,-0.400635,-1.119385
937,-3.658328,0.142501,9.931803,3.900397,0.192738,-0.025614,-0.837577,1.206967,-0.058017,0.192871,-0.391846,-1.115479
938,-3.907305,0.272084,9.500841,4.076395,0.046907,0.379452,-0.834639,1.191736,-0.269102,0.207275,-0.375,-1.118164
939,-4.245306,0.328705,9.210927,4.334062,-0.015871,0.637413,-0.833034,1.108395,-0.473354,0.221924,-0.366211,-1.114258
940,-4.510513,0.368113,8.829475,4.53296,-0.073607,0.987433,-0.820338,0.934207,-0.664591,0.230225,-0.349365,-1.109863
941,-4.57696,0.449244,8.533713,4.573016,-0.227247,1.268147,-0.797129,0.703139,-0.846748,0.236328,-0.34082,-1.116943
942,-4.419344,0.497634,8.291211,4.407743,-0.405364,1.510355,-0.771965,0.475432,-1.010207,0.244629,-0.323975,-1.108154
943,-4.246669,0.692305,8.126341,4.277289,-0.730078,1.705803,-0.745616,0.284429,-1.181661,0.248535,-0.311279,-1.106201
944,-3.937671,0.779312,7.894555,3.995612,-0.966287,1.96814,-0.702997,0.171945,-1.344423,0.256836,-0.300781,-1.11084
945,-3.524625,0.920092,7.680345,3.623258,-1.267415,2.228362,-0.645443,0.123002,-1.511644,0.256592,-0.286133,-1.11084
946,-3.069919,1.057912,7.423368,3.199773,-1.554524,2.532985,-0.589097,0.170886,-1.670857,0.26709,-0.27124,-1.106689
947,-2.562078,1.062058,7.161184,2.684641,-1.704218,2.822525,-0.531021,0.292777,-1.84022,0.270996,-0.260742,-1.100098
948,-2.350161,1.042661,6.764582,2.442578,-1.745302,3.228086,-0.452186,0.46483,-2.007544,0.275146,-0.246094,-1.102539
949,-2.292837,0.963226,6.464967,2.332612,-1.71025,3.518728,-0.348876,0.622426,-2.169021,0.289795,-0.235352,-1.096436
950,-2.482944,0.929075,6.171112,2.46709,-1.686727,3.797839,-0.239151,0.735231,-2.314321,0.302246,-0.226563,-1.092285
951,-2.734608,0.978808,5.782625,2.671608,-1.726801,4.177555,-0.101497,0.742802,-2.448175,0.312744,-0.216064,-1.088135
952,-2.936205,1.054292,5.519165,2.826253,-1.822036,4.438148,0.037565,0.65728,-2.55051,0.321045,-0.207275,-1.083984
953,-3.080092,1.078019,5.40963,2.918632,-1.898056,4.540929,0.176145,0.530244,-2.643266,0.335693,-0.200684,-1.077637
954,-3.26142,1.076378,5.336279,3.051059,-1.956022,4.603493,0.343073,0.37306,-2.738424,0.343994,-0.190186,-1.075684
955,-3.25388,1.266608,5.349915,2.99472,-2.214925,4.622423,0.510288,0.181783,-2.819748,0.3396,-0.186035,-1.073486
956,-3.027814,1.588555,5.377093,2.709674,-2.585983,4.657667,0.652321,0.004058,-2.883355,0.348145,-0.189941,-1.07373
957,-2.600422,1.818122,5.507932,2.215475,-2.844695,4.577787,0.77732,-0.131512,-2.934507,0.352295,-0.181641,-1.078369
958,-2.03806,2.178878,5.66899,1.565375,-3.187908,4.481155,0.911683,-0.224793,-2.987553,0.354492,-0.185547,-1.076172
959,-1.380795,2.549927,5.931469,0.802458,-3.49783,4.270854,1.007092,-0.252988,-3.017806,0.356445,-0.181396,-1.078369
960,-0.713998,2.919028,6.218857,0.015295,-3.755021,4.015829,1.102261,-0.232949,-3.044089,0.36084,-0.18335,-1.071777
961,-0.118812,3.324914,6.219458,-0.713782,-3.973719,4.029117,1.183988,-0.189402,-3.059554,0.354492,-0.189697,-1.069336
962,0.297644,3.577543,6.121225,-1.247848,-4.028309,4.105604,1.261609,-0.156605,-3.031232,0.358887,-0.19165,-1.064941
963,0.365972,3.772944,6.334255,-1.442235,-4.114459,3.856081,1.332293,-0.131545,-2.96566,0.365234,-0.195557,-1.067383
964,0.236056,3.798172,6.590701,-1.400556,-4.080047,3.543006,1.412859,-0.123659,-2.878992,0.371582,-0.20166,-1.06543
965,-0.088688,3.972347,6.919198,-1.212273,-4.246536,3.167534,1.488191,-0.144882,-2.775739,0.375977,-0.205566,-1.06543
966,-0.193098,4.328275,7.388743,-1.29347,-4.518029,2.651896,1.518771,-0.18018,-2.669653,0.378174,-0.216064,-1.063477
967,-0.010476,4.487813,7.839145,-1.572157,-4.487582,2.132821,1.516866,-0.224425,-2.559712,0.382568,-0.219971,-1.056885
968,0.492447,4.444433,8.373973,-2.05457,-4.126097,1.513873,1.496773,-0.236256,-2.479914,0.384766,-0.230225,-1.059082
969,1.088519,4.247453,8.867506,-2.534484,-3.55023,0.934197,1.489715,-0.175685,-2.412694,0.391113,-0.228027,-1.057129
970,1.466364,4.093009,9.531905,-2.804647,-3.069356,0.196576,1.472103,-0.047941,-2.360127,0.397461,-0.238281,-1.054932
971,1.598642,4.03798,10.283428,-2.880574,-2.75499,-0.614116,1.421415,0.101593,-2.304086,0.404053,-0.248291,-1.052979
972,1.728734,4.08307,10.90946,-3.003061,-2.508578,-1.294097,1.360952,0.237511,-2.245734,0.4104,-0.250244,-1.050781
973,1.375145,4.030705,11.154745,-2.675846,-2.407189,-1.571823,1.301136,0.370101,-2.190702,0.423096,-0.256104,-1.037842
974,0.463017,3.720672,11.367177,-1.753409,-2.377973,-1.786352,1.23422,0.496482,-2.14574,0.437988,-0.263916,-1.036133
975,-0.496095,3.278527,11.369177,-0.743609,-2.313155,-1.778114,1.169216,0.491656,-2.126004,0.44873,-0.263428,-1.036377
976,-0.940733,3.161208,11.378364,-0.339199,-2.291431,-1.805299,1.132962,0.355417,-2.103713,0.459229,-0.269287,-1.023193
977,-0.955555,3.229446,11.683869,-0.367492,-2.187462,-2.142791,1.077382,0.186854,-2.066169,0.469971,-0.27124,-1.023682
978,-1.017726,3.237076,12.030913,-0.302,-2.067101,-2.511754,1.030854,-0.006847,-2.026881,0.474121,-0.275146,-1.023682
979,-1.060988,3.03568,12.677324,-0.085245,-1.75601,-3.147396,0.958065,-0.2228,-1.970871,0.478271,-0.270752,-1.012695
980,-1.14252,2.729189,13.293718,0.25654,-1.410848,-3.730563,0.892923,-0.417698,-1.924174,0.482666,-0.272705,-1.017334
981,-0.92977,2.557398,13.817568,0.310022,-1.023806,-4.229563,0.8252,-0.558137,-1.917289,0.482666,-0.272705,-1.010498
982,-0.488098,2.524907,14.189592,0.108794,-0.625014,-4.594066,0.740274,-0.604786,-1.942885,0.484619,-0.268555,-1.006104
983,0.036934,2.509869,14.389732,-0.173488,-0.201156,-4.791894,0.647198,-0.539894,-1.985844,0.484619,-0.270752,-1.006104
984,0.278516,2.414684,14.236616,-0.23392,0.066989,-4.627868,0.572183,-0.391074,-2.030136,0.484619,-0.268555,-1.003906
985,0.275619,2.123968,14.120465,0.00489,0.320809,-4.465664,0.493378,-0.232664,-2.058376,0.490723,-0.258057,-0.997314
986,0.327388,1.775558,14.201551,0.25455,0.674718,-4.484983,0.433839,-0.10841,-2.089099,0.49292,-0.253662,-0.995361
987,0.567738,1.709627,14.354188,0.178376,0.974114,-4.620146,0.375744,-0.004973,-2.116745,0.501221,-0.247314,-0.986572
988,1.000559,1.730033,14.683813,-0.073888,1.387085,-4.941244,0.30568,0.069173,-2.130462,0.505371,-0.234619,-0.97998
989,1.395119,1.766589,14.79665,-0.340631,1.749493,-5.047683,0.23829,0.172489,-2.114825,0.511475,-0.221924,-0.97583
990,1.504863,1.76127,14.864085,-0.402278,1.934542,-5.100483,0.171602,0.288514,-2.083986,0.519775,-0.213379,-0.969238
991,1.543263,1.711798,14.737511,-0.42058,2.071366,-4.953419,0.09734,0.353905,-2.053942,0.528076,-0.200684,-0.965088
992,1.798071,1.644367,14.587717,-0.571033,2.381659,-4.7729,0.01731,0.373188,-2.011769,0.527832,-0.188232,-0.949463
993,2.026082,1.703357,14.351242,-0.813533,2.580773,-4.527522,-0.053874,0.391361,-1.954322,0.527588,-0.173584,-0.942627
994,2.307847,1.87021,14.100815,-1.179223,2.75948,-4.281664,-0.145889,0.41641,-1.887408,0.531494,-0.161133,-0.942871
995,2.302289,1.899246,13.699654,-1.290267,2.761884,-3.872876,-0.247576,0.435593,-1.815484,0.539795,-0.14624,-0.936523
996,2.34657,1.777707,13.268318,-1.318497,2.875537,-3.404992,-0.340681,0.451239,-1.722442,0.539795,-0.137939,-0.922852
997,2.545489,1.777194,12.971414,-1.519494,3.060516,-3.079915,-0.428029,0.446291,-1.619133,0.545654,-0.119141,-0.918701
998,2.923552,1.754152,12.777443,-1.789255,3.416567,-2.836906,-0.523708,0.445393,-1.503307,0.539307,-0.106934,-0.91626
999,3.185719,1.688425,12.584202,-1.962572,3.693383,-2.591675,-0.619867,0.494601,-1.36187,0.542969,-0.083984,-0.907471
1000,3.181125,1.690491,12.29849,-2.068805,3.692457,-2.28339,-0.695962,0.542049,-1.218161,0.555664,-0.075195,-0.898926
1001,3.141685,1.755473,11.899196,-2.228025,3.607365,-1.873396,-0.792639,0.561473,-1.071581,0.551025,-0.054688,-0.905518
1002,2.868875,1.848757,11.303213,-2.314341,3.270003,-1.294103,-0.879429,0.564943,-0.920696,0.555176,-0.041992,-0.896729
1003,2.667457,1.807114,10.622654,-2.32533,3.03518,-0.608503,-0.971647,0.542175,-0.765982,0.554932,-0.031494,-0.883301
1004,2.550466,1.66517,9.906856,-2.28554,2.901916,0.128801,-1.052888,0.46616,-0.608449,0.554688,-0.012939,-0.885498
1005,2.63139,1.386866,9.423568,-2.202963,3.025481,0.666994,-1.129719,0.38633,-0.460748,0.556641,-0.006592,-0.878906
1006,2.86463,1.017567,9.027025,-2.10257,3.327097,1.138736,-1.178776,0.344548,-0.323265,0.554199,0.01416,-0.869873
1007,3.107852,0.961507,8.797192,-2.274117,3.510507,1.417593,-1.197542,0.350572,-0.192158,0.554199,0.022461,-0.869873
1008,3.298332,0.903658,8.542192,-2.417851,3.645544,1.717773,-1.217028,0.413666,-0.078749,0.556152,0.030762,-0.869873
1009,3.41312,0.847314,8.361805,-2.528558,3.727833,1.938955,-1.226074,0.510806,0.028892,0.558105,0.04541,-0.863281
1010,3.466849,0.765239,8.102708,-2.587102,3.762921,2.236101,-1.226779,0.619322,0.136306,0.564209,0.053711,-0.856934
1011,3.433278,0.71421,7.871985,-2.631741,3.715946,2.496261,-1.207529,0.709512,0.259661,0.566162,0.062256,-0.845703
1012,3.42187,0.690022,7.600719,-2.705828,3.67227,2.80213,-1.188703,0.773353,0.389544,0.57251,0.070801,-0.845947
1013,3.29923,0.608257,7.231402,-2.663562,3.547021,3.189171,-1.147855,0.786059,0.525507,0.578613,0.075195,-0.839355
1014,3.000135,0.498465,6.85744,-2.500174,3.281405,3.547366,-1.096979,0.747962,0.681756,0.584961,0.085693,-0.832764
1015,2.576799,0.379172,6.583035,-2.263921,2.926985,3.777244,-1.032663,0.670643,0.851945,0.589111,0.081543,-0.826172
1016,2.382768,0.317663,6.362453,-2.183347,2.744146,3.985061,-0.981592,0.549044,1.026714,0.593262,0.08374,-0.826416
1017,2.323807,0.376068,6.284902,-2.28004,2.628521,4.073947,-0.912049,0.426223,1.196279,0.60376,0.086182,-0.820068
1018,2.344151,0.42716,6.187401,-2.40152,2.573982,4.194135,-0.841883,0.373106,1.363399,0.601807,0.086182,-0.81543
1019,2.338278,0.352079,6.049468,-2.393439,2.557763,4.34311,-0.760274,0.378812,1.523444,0.604004,0.080078,-0.81543
1020,2.344987,0.278484,5.964236,-2.39856,2.561073,4.442782,-0.660155,0.434533,1.671807,0.616699,0.078369,-0.815918
1021,2.321035,0.273963,5.766513,-2.424553,2.490599,4.651983,-0.545927,0.529078,1.808384,0.623291,0.066162,-0.811768
1022,2.084413,0.260593,5.633434,-2.328232,2.270629,4.755869,-0.403548,0.654774,1.939901,0.629639,0.055908,-0.813965
1023,1.557098,0.364225,5.632151,-2.167691,1.783111,4.674627,-0.262475,0.770624,2.05129,0.640381,0.043945,-0.801025
1024,0.88093,0.428708,5.575019,-1.857023,1.214136,4.605211,-0.139628,0.851926,2.164523,0.651123,0.029785,-0.803467
1025,0.398133,0.46887,5.427034,-1.603804,0.813871,4.655522,-0.029747,0.851352,2.269383,0.659912,0.015381,-0.803711
1026,0.121635,0.529444,5.497613,-1.514357,0.599622,4.533867,0.08412,0.801834,2.385493,0.668701,-0.000977,-0.797363
1027,-0.122773,0.783372,5.697859,-1.596893,0.30788,4.294587,0.184651,0.731127,2.477571,0.673096,-0.019531,-0.788574
1028,-0.304106,1.058264,5.828728,-1.701811,0.036324,4.130352,0.263653,0.66471,2.551574,0.679932,-0.044189,-0.786377
1029,-0.439201,1.23825,6.039613,-1.768101,-0.122882,3.891393,0.31278,0.619416,2.611653,0.688721,-0.06665,-0.786621
1030,-0.780881,1.453674,6.453211,-1.741497,-0.406006,3.396375,0.34576,0.595306,2.66045,0.693359,-0.091309,-0.784424
1031,-0.987333,1.691042,6.952148,-1.824409,-0.590359,2.849241,0.344203,0.570784,2.673454,0.699951,-0.118164,-0.784668
1032,-0.991649,1.859328,7.332373,-1.972537,-0.614733,2.468633,0.305479,0.54707,2.686504,0.70874,-0.134521,-0.784912
